Trial	Gender_Face1	Face1_nb	Face2_nb	Right_left_flip	Nb_Bubbles	Overlap_Target	Response	RT	Accuracy	Simi2Target	Trial_Reward
1	0	127	65	0	27	0	120	1.11762740300037	1	0	0
2	1	21	147	0	24	0	122	0.644344016007381	1	0	0
3	0	117	83	1	22	0	122	2.48989545200311	0	0	0
4	1	42	132	0	30	0	122	0.843517218992929	1	0	0
5	1	68	23	0	27	0	122	1.17601136400481	1	0	0
6	0	130	67	1	25	0	120	0.647223514999496	1	0	0
7	0	129	130	0	23	0	120	0.682156309994753	1	0	0
8	1	32	90	0	20	0	122	0.701168916013557	1	0	0
9	0	35	56	0	18	0	122	0.534775815001922	0	0	0
10	1	19	145	0	25	0	122	0.663665151005262	1	0	0
11	1	13	103	0	23	0	120	1.58620026400604	0	0	0
12	0	106	115	0	29	0	120	0.528353079993394	1	0	0
13	1	52	65	0	27	0	122	0.577411577003659	1	0	0
14	1	39	141	0	25	0	122	0.640145514000324	1	0	0
15	0	147	119	1	23	0	120	0.844781059000525	1	0	0
16	0	131	82	0	21	0	120	0.943971701999544	1	0	0
17	0	124	93	0	19	0	120	0.887879356989288	1	0	0
18	1	67	95	1	17	0	122	0.577596426999662	1	0	0
19	1	138	129	1	15	0	122	0.584180613994249	1	0	0
20	0	40	12	0	13	0	120	0.647851319008623	1	0	0
21	0	19	111	1	12	0	122	0.771687118001864	0	0	0
22	1	19	118	0	17	0	122	1.84143591299653	1	0	0
23	1	146	46	0	15	0	120	1.32679113000631	0	0	0
24	1	44	121	0	21	0	120	0.663161374002811	0	0	0
25	0	69	93	1	26	0	120	0.601371935001225	1	0	0
26	0	32	129	1	24	0	120	0.623808082993492	1	0	0
27	1	6	84	0	23	0	122	0.666954795000493	1	0	0
28	0	134	70	1	21	0	120	1.07132673599699	1	0	0
29	0	125	78	0	19	0	122	0.689310765999835	0	0	0
30	1	43	48	1	24	0	122	0.756750172993634	1	0	0
31	0	146	61	1	23	0	122	0.754587192001054	0	0	0
32	1	84	81	1	27	0	122	1.13801765699463	1	0	0
33	1	47	35	1	26	0	122	0.826857052990817	1	0	0
34	0	135	83	1	24	0	122	0.783076854000683	0	0	0
35	1	101	132	1	29	0	120	0.597567172997515	0	0	0
36	0	19	47	0	33	0	120	1.25169552699663	1	0	0
37	0	29	133	1	32	0	120	0.726992407988291	1	0	0
38	0	17	19	0	30	0	120	0.553300669998862	1	0	0
39	0	19	122	0	29	0	122	0.776380562005215	0	0	0
40	0	67	3	0	33	0	122	1.50161111999478	0	0	0
41	0	32	5	0	37	0	120	2.48848652400193	1	0	0
42	0	70	64	0	36	0	120	0.674243487999775	1	0	0
43	1	129	89	1	34	0	122	0.59745608700905	1	0	0
44	1	92	60	0	33	0	122	0.786289305004175	1	0	0
45	1	6	69	1	32	0	122	0.64081996200548	1	0	0
46	0	117	139	1	30	0	120	2.75697893000324	1	0	0
47	1	73	84	1	29	0	122	0.835995889006881	1	0	0
48	0	91	82	1	28	0	120	1.15263418199902	1	0	0
49	1	78	23	1	27	0	122	0.71061017899774	1	0	0
50	1	70	102	0	26	0	122	0.657160153001314	1	0	0
51	1	111	13	1	24	0	122	0.676358511002036	1	0	0
52	0	17	59	1	23	0	122	0.798324358009268	0	0	0
53	1	1	14	1	27	0	122	1.12390683901322	1	0	0
54	1	40	99	1	25	0	122	0.837776145999669	1	0	0
55	1	102	72	1	24	0	122	0.609798763005529	1	0	0
56	0	67	85	0	23	0	120	0.638062148005702	1	0	0
57	0	137	76	1	22	0	120	0.697815141000319	1	0	0
58	0	32	77	1	21	0	120	0.708063953003148	1	0	0
59	1	73	113	1	20	0	122	0.854244821995962	1	0	0
60	0	76	103	0	19	0	120	0.680260779001401	1	0	0
61	0	59	65	1	18	0	120	0.739746402992751	1	0	0
62	0	110	21	1	17	0	120	3.41998088599939	1	0	0
63	0	76	135	0	16	0	120	0.615838557001553	1	0	0
64	1	134	94	0	15	0	122	0.557250726007624	1	0	0
65	0	133	4	0	14	0	120	1.16510616999585	1	0	0
66	0	39	118	1	13	0	120	1.02924677799456	1	0	0
67	1	99	20	1	12	0	122	1.47395808299189	1	0	0
68	0	18	123	1	11	0	122	1.38036097100121	0	0	0
69	1	46	63	1	14	0	122	0.962905966996914	1	0	0
70	0	49	13	0	13	0	122	1.09831995599961	0	0	0
71	0	55	74	1	16	0	120	1.65556680200098	1	0	0
72	0	108	44	0	15	0	120	0.654285892000189	1	0	0
73	0	108	103	0	14	0	120	0.673448018991621	1	0	0
74	0	40	116	1	13	0	120	1.01314073700632	1	0	0
75	0	135	107	0	12	0	120	0.898174873989774	1	0	0
76	0	98	59	1	11	0	120	1.38792954600649	1	0	0
77	1	118	50	1	10	0	122	0.776886891995673	1	0	0
78	1	56	136	0	9	0	122	0.528698392008664	1	0	0
79	0	60	130	1	8	0	122	0.728016430992284	0	0	0
80	0	6	120	0	11	0	120	1.42590423500224	1	0	0
81	0	96	125	0	10	0	120	0.726917193998815	1	0	0
82	1	51	112	0	9	0	122	1.05460061100894	1	0	0
83	0	10	98	1	9	0	122	1.24207986000692	0	0	0
84	0	114	77	0	11	0	122	0.725247032998595	0	0	0
85	1	55	78	0	13	0	122	1.00630016799551	1	0	0
86	1	18	4	1	13	0	122	0.692600762995426	1	0	0
87	1	23	14	0	12	0	122	1.42131518399401	1	0	0
88	0	115	126	1	11	0	122	1.37083088800136	0	0	0
89	0	114	17	0	13	0	122	1.23406798299402	0	0	0
90	0	135	136	1	16	0	122	1.50101210401044	0	0	0
91	0	131	29	1	18	0	120	0.824269988006563	1	0	0
92	1	36	148	0	17	0	122	0.827847181994002	1	0	0
93	1	150	15	0	17	0	120	0.921995133001474	0	0	0
94	0	129	87	1	19	0	120	1.01726160499675	1	0	0
95	1	3	2	1	18	0	122	0.766287994993036	1	0	0
96	0	80	9	0	17	0	120	0.854960741999093	1	0	0
97	1	105	123	1	17	0	122	0.88965371499944	1	0	0
98	0	84	150	0	16	0	120	1.35618444500142	1	0	0
99	0	147	132	1	15	0	120	1.29039514099713	1	0	0
100	1	21	51	0	14	0	122	0.756744510988938	1	0	0
101	0	2	102	0	14	0	120	0.711359598994022	1	0	0
102	1	26	103	0	11	0	122	0.636809033996542	1	0	0
103	1	17	130	0	9	0	120	0.707135525008198	0	0	0
104	0	133	44	1	17	0	120	1.35692705999827	1	0	0
105	0	64	35	0	14	0	120	0.843688002001727	1	0	0
106	1	133	49	0	12	0	122	0.567123714004993	1	0	0
107	0	77	79	1	10	0	122	0.903253451004275	0	0	0
108	1	134	146	1	17	0	120	0.824508031000732	0	0	0
109	0	58	139	0	23	0	120	0.653904186998261	1	0	0
110	1	106	132	1	21	0	120	0.984314476998406	0	0	0
111	1	57	2	0	27	0	122	1.90306020899152	1	0	0
112	0	20	133	0	25	0	122	0.583619378012372	0	0	0
113	0	8	62	1	31	0	122	0.631175409987918	0	0	0
114	1	132	149	0	36	0	122	0.659304567001527	1	0	0
115	0	7	146	0	35	0	120	0.670152991006034	1	0	0
116	1	33	101	1	33	0	122	0.641735100012738	1	0	0
117	0	127	43	1	31	0	120	0.622292350002681	1	0	0
118	1	84	42	1	29	0	122	0.642385992003256	1	0	0
119	0	109	96	0	28	0	120	0.645906685997033	1	0	0
120	1	105	134	1	26	0	122	1.92171807900013	1	0	0
121	1	15	137	1	24	0	120	2.2267282679968	0	0	0
122	1	147	33	1	29	0	120	0.967383827999583	0	0	0
123	0	130	76	1	34	0	120	0.847398109995993	1	0	0
124	1	144	122	0	33	0	120	0.931168203998823	0	0	0
125	1	111	102	0	37	0	122	0.834484930004692	1	0	0
126	0	60	125	1	36	0	120	0.911211170998286	1	0	0
127	1	143	148	0	34	0	122	0.600511102005839	1	0	0
128	0	24	133	0	33	0	122	1.8472293119994	0	0	0
129	0	141	46	0	37	0	120	0.778618917989661	1	0	0
130	1	103	93	0	36	0	120	0.99807636901096	0	0	0
131	0	103	50	0	40	0	120	1.03039950900711	1	0	0
132	0	91	69	0	39	0	120	0.778143696996267	1	0	0
133	1	40	59	0	37	0	122	0.81243721699866	1	0	0
134	0	138	44	0	36	0	120	1.38982129799842	1	0	0
135	0	43	16	1	35	0	122	1.108876718994	0	0	0
136	0	24	5	0	39	0	120	1.23691303600208	1	0	0
137	0	57	29	1	38	0	120	0.921966134992545	1	0	0
138	0	115	143	1	36	0	120	1.06542833699496	1	0	0
139	1	131	114	1	35	0	122	1.09460213599959	1	0	0
140	0	25	145	1	34	0	122	1.02413576899562	0	0	0
141	1	7	56	0	37	0	122	0.795820932005881	1	0	0
142	1	135	97	0	36	0	120	2.20199344999855	0	0	0
143	1	75	98	1	40	0	122	0.71887533699919	1	0	0
144	1	120	33	1	39	0	120	0.863845055006095	0	0	0
145	0	131	81	1	42	0	120	0.875550811004359	1	0	0
146	0	52	97	1	41	0	120	0.710393460991327	1	0	0
147	1	69	82	0	40	0	122	1.14326984700165	1	0	0
148	1	11	70	0	39	0	122	0.735669811008847	1	0	0
149	0	81	135	1	38	0	120	0.823410179000348	1	0	0
150	0	10	41	1	36	0	122	2.1318145319965	0	0	0
151	0	31	125	0	40	0	120	1.05990684799326	1	0	0
152	0	26	138	0	39	0	120	0.75252615599311	1	0	0
153	1	150	86	0	38	0	122	0.942728923997493	1	0	0
154	0	138	14	0	37	0	122	0.791756389997317	0	0	0
155	0	25	111	0	40	0	122	1.06109087500954	0	0	0
156	0	50	87	0	43	0	120	0.856253076999565	1	0	0
157	0	14	40	0	42	0	120	0.819906607997837	1	0	0
158	1	114	61	0	41	0	122	0.889289890998043	1	0	0
159	1	124	13	1	40	0	120	1.63423911700374	0	0	0
160	1	109	26	0	43	0	122	0.623857193990261	1	0	0
161	1	101	110	0	42	0	120	0.772002957004588	0	0	0
162	1	82	27	1	45	0	122	0.77091203899181	1	0	0
163	1	133	118	0	44	0	122	0.792789949002326	1	0	0
164	0	111	139	1	43	0	122	0.559473975998117	0	0	0
165	1	95	139	0	46	0	122	0.862796925997827	1	0	0
166	0	121	63	0	45	0	120	0.730525925988331	1	0	0
167	1	8	14	1	44	0	122	0.769735822002986	1	0	0
168	1	27	67	1	43	0	122	1.39295365200087	1	0	0
169	0	89	86	1	42	0	120	1.45523367800342	1	0	0
170	0	55	136	1	41	0	120	1.33897043700563	1	0	0
171	1	108	145	0	40	0	122	0.794793218999985	1	0	0
172	1	16	30	1	39	0	122	0.583413757005474	1	0	0
173	1	60	149	1	38	0	122	0.790400774989394	1	0	0
174	1	26	118	1	37	0	122	0.668801941006677	1	0	0
175	0	120	51	1	36	0	120	1.14418369501072	1	0	0
176	0	39	89	0	36	0	120	1.68036681400554	1	0	0
177	0	137	48	0	35	0	120	1.96199616900412	1	0	0
178	0	137	149	0	34	0	120	0.680617927995627	1	0	0
179	1	120	48	0	33	0	120	0.852324962004786	0	0	0
180	1	143	77	1	35	0	122	0.695339088997571	1	0	0
181	0	90	64	1	35	0	122	0.712521409004694	0	0	0
182	0	25	106	1	37	0	122	0.883250824990682	0	0	0
183	0	106	15	0	40	0	120	0.902204980011447	1	0	0
184	1	118	95	0	39	0	122	0.751124578004237	1	0	0
185	1	43	118	0	38	0	122	0.69465889899584	1	0	0
186	1	51	108	1	37	0	122	1.2641611519939	1	0	0
187	1	14	47	1	36	0	120	0.914865353988716	0	0	0
188	0	136	2	1	39	0	122	1.34889798299992	0	0	0
189	1	125	23	1	41	0	122	1.18873977399198	1	0	0
190	1	142	98	1	40	0	122	1.24384787300369	1	0	0
191	0	1	107	0	40	0	120	1.27028584798973	1	0	0
192	0	2	42	0	39	0	120	0.834747049011639	1	0	0
193	1	81	8	0	38	0	120	0.725681284005987	0	0	0
194	0	29	111	0	40	0	122	1.13484859699383	0	0	0
195	1	70	101	0	43	0	122	2.04034018600942	1	0	0
196	1	61	69	1	42	0	122	1.78841320899664	1	0	0
197	1	6	16	0	41	0	122	0.802357424996444	1	0	0
198	0	42	105	1	40	0	120	1.79175899599795	1	0	0
199	0	2	16	1	40	0	120	0.860224996009492	1	0	0
200	0	42	14	1	39	0	120	1.12742281099781	1	0	0
201	1	13	69	0	39	0	122	1.48239363299217	1	0	0
202	1	120	80	1	36	0	122	1.00279468799999	1	0	0
203	1	136	121	0	34	0	122	1.06570003800152	1	0	0
204	0	95	19	1	31	0	122	1.10192292300053	0	0	0
205	1	74	86	0	39	0	122	1.0405529379932	1	0	0
206	1	114	117	0	37	0	120	0.842654296007822	0	0	0
207	1	111	77	1	44	0	120	1.04042709099303	0	0	0
208	0	20	128	1	51	0	120	0.827442776993848	1	0	0
209	0	15	13	0	49	0	120	0.696140398998978	1	0	0
210	1	137	37	0	47	0	120	0.69849300700298	0	0	0
211	1	42	60	0	53	0	120	1.3091388370085	0	0	0
212	1	75	15	0	58	0	122	0.957650559998001	1	0	0
213	1	12	33	1	56	0	122	0.68558148999	1	0	0
214	1	131	45	0	55	0	120	0.782202857008087	0	0	0
215	0	109	30	1	60	0	120	0.740450360011891	1	0	0
216	1	89	47	0	58	0	122	0.813442209997447	1	0	0
217	1	52	67	1	57	0	122	0.659041952996631	1	0	0
218	1	147	124	1	55	0	122	1.25354802199581	1	0	0
219	1	31	136	0	53	0	122	0.737657164994744	1	0	0
220	1	31	113	0	52	0	122	0.578302624999196	1	0	0
221	1	72	98	0	50	0	122	0.695575819001533	1	0	0
222	1	92	56	1	49	0	122	0.753595975998905	1	0	0
223	1	53	113	1	47	0	120	0.937581065998529	0	0	0
224	0	92	135	1	52	0	120	0.664787998000975	1	0	0
225	0	107	130	0	50	0	120	0.883825642988086	1	0	0
226	0	8	135	0	49	0	120	0.599195457994938	1	0	0
227	1	69	79	1	47	0	122	0.885127295987331	1	0	0
228	1	67	16	1	46	0	122	0.70306264401006	1	0	0
229	0	140	92	0	44	0	122	0.665147323990823	0	0	0
230	0	144	68	0	49	0	120	0.819978756000637	1	0	0
231	1	96	74	0	47	0	122	0.85788713900547	1	0	0
232	1	121	113	0	46	0	122	0.956162406000658	1	0	0
233	1	99	25	1	44	0	122	0.8197184719902	1	0	0
234	1	118	107	0	43	0	122	2.27975355900708	1	0	0
235	0	23	47	1	42	0	120	0.842725889000576	1	0	0
236	1	100	129	1	40	0	122	1.3896060110128	1	0	0
237	0	23	55	1	39	0	120	0.780046831001528	1	0	0
238	0	77	139	0	38	0	122	3.06655562699598	0	0	0
239	1	85	107	1	42	0	122	1.97477252400131	1	0	0
240	0	60	95	0	40	0	120	0.772911470005056	1	0	0
241	1	18	23	1	39	0	122	1.2439328370092	1	0	0
242	0	131	23	1	38	0	120	0.823128670002916	1	0	0
243	1	7	122	0	37	0	122	0.724376660000416	1	0	0
244	0	62	92	0	35	0	120	0.701517845998751	1	0	0
245	1	26	40	1	34	0	122	0.671383783992496	1	0	0
246	1	131	50	0	33	0	122	0.794298506007181	1	0	0
247	1	97	108	1	32	0	122	0.631543993004016	1	0	0
248	0	58	127	0	31	0	120	0.764771906993701	1	0	0
249	0	60	24	1	30	0	120	0.63602999401337	1	0	0
250	1	64	77	0	28	0	120	0.606929665009375	0	0	0
251	0	33	146	1	32	0	120	0.917004508009995	1	0	0
252	1	94	64	0	31	0	122	1.17406538900104	1	0	0
253	0	8	72	1	30	0	120	1.04408654999861	1	0	0
254	1	142	56	0	28	0	122	0.992175908002537	1	0	0
255	1	94	125	0	27	0	122	2.19098252900585	1	0	0
256	1	39	9	0	26	0	120	2.27556704600283	0	0	0
257	1	43	110	0	30	0	122	0.80742103898956	1	0	0
258	0	94	99	1	29	0	120	0.84493630900397	1	0	0
259	1	18	115	1	28	0	120	1.0313347629999	0	0	0
260	1	78	66	1	31	0	122	0.605493583003408	1	0	0
261	0	84	61	1	30	0	122	0.698086589996819	0	0	0
262	0	59	39	1	32	0	120	0.651396449989988	1	0	0
263	1	42	42	0	31	0	120	0.863948558995617	0	0	0
264	1	95	100	1	34	0	122	0.747002608011826	1	0	0
265	1	72	142	1	34	0	120	0.690652594988933	0	0	0
266	1	125	131	0	36	0	120	0.893359592999332	0	0	0
267	1	32	131	0	39	0	120	0.695156076995772	0	0	0
268	0	72	141	1	42	0	120	0.625754423002945	1	0	0
269	0	72	95	1	41	0	120	0.757806731999153	1	0	0
270	1	114	97	1	40	0	120	1.48551037300786	0	0	0
271	1	76	24	0	43	0	120	0.583853229996748	0	0	0
272	1	50	19	1	46	0	122	0.950523311999859	1	0	0
273	0	11	7	1	45	0	120	0.734303047996946	1	0	0
274	1	43	87	1	44	0	122	1.43993604400021	1	0	0
275	0	27	133	1	43	0	122	1.40285409201169	0	0	0
276	0	30	136	1	46	0	120	1.62385542699485	1	0	0
277	0	83	6	0	45	0	120	0.733791808001115	1	0	0
278	1	92	123	1	44	0	122	0.734865513004479	1	0	0
279	1	45	120	1	44	0	120	1.51908913200896	0	0	0
280	1	46	143	1	46	0	122	0.822537407002528	1	0	0
281	1	148	42	1	45	0	122	1.01561097099329	1	0	0
282	1	63	6	0	44	0	120	1.45709535799688	0	0	0
283	1	40	35	1	47	0	120	2.89119780999317	0	0	0
284	0	85	28	0	50	0	122	0.573400875000516	0	0	0
285	0	30	26	1	53	0	120	0.676970304994029	1	0	0
286	0	26	88	0	52	0	120	0.767433913002606	1	0	0
287	1	84	61	0	51	0	122	3.39089524999144	1	0	0
288	1	72	41	1	50	0	122	0.8041190369986	1	0	0
289	1	149	146	1	49	0	120	0.953288610995514	0	0	0
290	1	17	42	1	52	0	122	0.849391038005706	1	0	0
291	0	84	92	0	51	0	120	0.636905920007848	1	0	0
292	1	2	149	0	50	0	120	0.95275469700573	0	0	0
293	1	15	118	0	52	0	120	2.80762559598952	0	0	0
294	1	31	21	0	55	0	122	1.03037201199913	1	0	0
295	1	132	43	0	54	0	122	0.85891135300335	1	0	0
296	0	63	43	0	53	0	120	2.14136366000457	1	0	0
297	1	45	49	0	52	0	120	3.53316417300084	0	0	0
298	0	42	57	0	55	0	120	1.22209411101358	1	0	0
299	1	55	34	0	54	0	122	0.587252224009717	1	0	0
300	0	54	73	0	53	0	122	0.552653840000858	0	0	0
