Trial	Gender_Face1	Face1_nb	Face2_nb	Right_left_flip	Nb_Bubbles	Overlap_Target	Response	RT	Accuracy	Simi2Target	Trial_Reward
1	0	7	84	0	40	0	122	8.95667266799137	1	0	0
2	1	116	131	1	37	0	120	1.88380240800325	1	0	0
3	0	16	123	1	35	0	122	2.05787346395664	1	0	0
4	1	44	76	1	32	0	120	1.12698456295766	1	0	0
5	1	34	55	1	30	0	120	2.35182545997668	1	0	0
6	1	31	108	1	27	0	122	1.79142260999652	0	0	0
7	1	15	21	0	35	0	120	2.77360524900723	1	0	0
8	0	56	23	0	33	0	122	1.28929231397342	1	0	0
9	1	10	102	1	31	0	120	0.987449431035202	1	0	0
10	1	9	45	0	28	0	122	1.83722772798501	0	0	0
11	0	145	121	0	35	0	120	1.32940524799051	0	0	0
12	0	44	50	0	42	0	122	1.38641296798596	1	0	0
13	0	96	121	0	40	0	122	1.49619783798698	1	0	0
14	1	134	12	0	38	0	120	1.08297772501828	1	0	0
15	1	142	95	1	36	0	120	1.17327695799759	1	0	0
16	0	67	149	1	34	0	120	0.883821010997053	0	0	0
17	1	144	144	0	40	0	120	1.27893233898794	1	0	0
18	0	99	131	1	38	0	120	1.23373749596067	0	0	0
19	1	104	134	0	44	0	120	1.31057644804241	1	0	0
20	0	41	97	0	42	0	122	2.59155501099303	1	0	0
21	0	147	62	0	40	0	120	0.806286626961082	0	0	0
22	1	36	121	1	45	0	120	1.36092720698798	1	0	0
23	0	123	90	0	44	0	122	2.83579684596043	1	0	0
24	0	89	116	0	42	0	122	1.60740610997891	1	0	0
25	0	102	9	0	40	0	120	1.27725247904891	0	0	0
26	1	2	45	1	45	0	120	0.848166780022439	1	0	0
27	1	23	54	0	44	0	120	0.961200253979769	1	0	0
28	0	58	13	0	42	0	120	0.861793215037324	0	0	0
29	1	139	105	0	47	0	120	0.660810211964417	1	0	0
30	0	76	23	0	45	0	122	0.987251448037568	1	0	0
31	0	46	10	0	44	0	122	0.898449774947949	1	0	0
32	1	15	120	0	42	0	122	1.09199184499448	0	0	0
33	1	74	101	0	46	0	122	1.18243911699392	0	0	0
34	0	13	48	0	51	0	120	1.38654731900897	0	0	0
35	0	13	73	1	55	0	122	1.74833307502558	1	0	0
36	1	131	130	1	54	0	122	1.86054893903201	0	0	0
37	1	130	106	0	58	0	122	3.19178246799856	0	0	0
38	1	9	138	1	62	0	122	3.58933045499725	0	0	0
39	0	105	91	0	66	0	120	3.61171209602617	0	0	0
40	1	145	75	0	71	0	120	0.768828132015187	1	0	0
41	0	21	146	0	69	0	122	1.0721079200157	1	0	0
42	1	20	62	0	68	0	122	1.11487579403911	0	0	0
43	1	86	41	1	72	0	120	1.21272082003998	1	0	0
44	1	79	86	0	71	0	120	0.921998504025396	1	0	0
45	0	124	27	1	69	0	122	1.40851570799714	1	0	0
46	0	67	132	1	68	0	120	1.69712806696771	0	0	0
47	0	120	141	1	72	0	122	1.02739589900011	1	0	0
48	0	2	66	0	71	0	122	1.60775776399532	1	0	0
49	1	122	14	1	69	0	120	0.668917317001615	1	0	0
50	0	118	2	1	68	0	122	3.6537717889878	1	0	0
51	1	24	28	1	67	0	120	1.57243247696897	1	0	0
52	1	84	55	1	66	0	120	5.27570282504894	1	0	0
53	0	32	63	0	65	0	122	0.802609517995734	1	0	0
54	0	5	33	0	64	0	122	0.991936590988189	1	0	0
55	1	71	41	1	62	0	122	1.30577936104964	0	0	0
56	1	107	13	0	66	0	120	0.644105469982605	1	0	0
57	1	134	138	1	65	0	120	1.36517765000463	1	0	0
58	0	10	55	0	64	0	120	0.99115052097477	0	0	0
59	1	126	134	0	67	0	120	0.716957614989951	1	0	0
60	1	77	50	0	66	0	122	4.99858464504359	0	0	0
61	1	116	100	0	69	0	120	1.70794663199922	1	0	0
62	0	42	132	1	68	0	120	1.54124558100011	0	0	0
63	0	148	70	1	71	0	120	3.52563016099157	0	0	0
64	0	118	107	1	74	0	122	0.694345362018794	1	0	0
65	0	16	118	0	73	0	122	1.40095953899436	1	0	0
66	1	24	63	1	72	0	120	1.61454990296625	1	0	0
67	0	125	4	0	71	0	120	1.15590308804531	0	0	0
68	1	122	62	0	74	0	122	3.7476028270321	0	0	0
69	0	122	131	0	77	0	120	3.73131592501886	0	0	0
70	0	41	8	1	80	0	122	0.834897451975849	1	0	0
71	1	31	7	1	79	0	120	1.10052909998922	1	0	0
72	1	16	27	1	78	0	122	0.745482661994174	0	0	0
73	0	32	17	0	81	0	120	2.12217051401967	0	0	0
74	1	133	78	0	84	0	122	3.8908938060049	0	0	0
75	1	124	89	1	87	0	120	1.41273756697774	1	0	0
76	0	60	54	0	86	0	122	0.761393757944461	1	0	0
77	1	124	95	1	85	0	120	5.64136936300201	1	0	0
78	1	9	32	0	84	0	120	3.65331540099578	1	0	0
79	0	77	103	1	83	0	120	5.96064451802522	0	0	0
80	1	51	1	1	86	0	120	0.775609656004235	1	0	0
81	0	80	69	0	85	0	120	1.17172415700043	0	0	0
82	1	98	138	1	88	0	120	0.749240711971652	1	0	0
83	1	71	112	1	87	0	122	1.15729246597039	0	0	0
84	1	75	46	0	90	0	120	1.10114828502992	1	0	0
85	1	19	139	1	89	0	120	1.02281541097909	1	0	0
86	0	142	3	1	88	0	122	0.808762172004208	1	0	0
87	0	133	136	0	87	0	122	1.12939073599409	1	0	0
88	1	92	127	1	86	0	120	0.673980173945893	1	0	0
89	1	26	37	0	85	0	120	0.532483632967342	1	0	0
90	1	83	127	0	85	0	120	0.821648810990155	1	0	0
91	0	135	38	1	84	0	120	0.826063774991781	0	0	0
92	0	75	51	1	86	0	122	0.58554716798244	1	0	0
93	0	62	12	0	85	0	120	0.966255258012097	0	0	0
94	1	60	87	0	88	0	120	1.4090912109823	1	0	0
95	1	89	46	1	87	0	122	0.994605794025119	0	0	0
96	0	144	113	1	90	0	122	0.813641844026279	1	0	0
97	1	116	98	0	89	0	120	1.02979084098479	1	0	0
98	1	132	131	0	88	0	122	2.2547355890274	0	0	0
99	1	145	68	1	90	0	120	1.11818311002571	1	0	0
100	0	106	120	1	90	0	120	1.16723534598714	0	0	0
101	0	73	73	1	90	0	122	1.1392381619662	1	0	0
102	1	55	7	1	87	0	120	0.644179916009307	1	0	0
103	1	118	80	1	85	0	122	0.868050838995259	0	0	0
104	1	126	147	0	93	0	122	1.16644165798789	0	0	0
105	0	26	41	0	99	0	122	0.696209255023859	1	0	0
106	0	63	18	0	97	0	122	2.92352214100538	1	0	0
107	0	134	61	1	95	0	122	1.66707600298105	1	0	0
108	0	38	86	1	93	0	122	0.918494019948412	1	0	0
109	0	21	91	1	91	0	122	1.11159661697457	1	0	0
110	0	57	1	1	89	0	122	1.04949243296869	1	0	0
111	0	24	131	0	87	0	120	4.28239171300083	0	0	0
112	1	139	116	0	93	0	120	1.33528833201854	1	0	0
113	0	23	87	0	91	0	122	1.88031672098441	1	0	0
114	1	105	5	1	89	0	120	2.97098908899352	1	0	0
115	0	69	54	1	87	0	122	1.55875910702161	1	0	0
116	1	53	45	0	85	0	120	1.11262076796265	1	0	0
117	0	142	36	1	83	0	122	0.682390203990508	1	0	0
118	0	74	30	1	81	0	122	1.08505212602904	1	0	0
119	0	28	108	1	79	0	122	0.768132322002202	1	0	0
120	1	86	95	1	78	0	122	2.27904086897615	0	0	0
121	1	47	121	1	83	0	120	1.11376584100071	1	0	0
122	1	17	99	1	81	0	120	0.738732461992186	1	0	0
123	1	134	77	0	80	0	120	1.11623966199113	1	0	0
124	1	134	59	1	78	0	120	2.62914292298956	1	0	0
125	0	5	24	0	76	0	122	1.46585162100382	1	0	0
126	0	113	59	0	75	0	122	1.98073594894959	1	0	0
127	1	20	98	0	73	0	120	0.843625111039728	1	0	0
128	1	130	91	1	71	0	120	2.66097627696581	1	0	0
129	0	60	31	0	70	0	122	3.73093555000378	1	0	0
130	0	117	122	0	68	0	120	3.17908352101222	0	0	0
131	1	42	21	1	73	0	120	2.51364721800201	1	0	0
132	1	71	44	1	71	0	122	2.40276156895561	0	0	0
133	1	16	88	1	76	0	122	2.43201214296278	0	0	0
134	0	93	107	1	81	0	122	2.40366653696401	1	0	0
135	0	119	115	1	79	0	122	1.12154969497351	1	0	0
136	1	124	128	0	78	0	120	0.79495945101371	1	0	0
137	1	76	24	0	76	0	120	1.64861523901345	1	0	0
138	0	134	103	1	75	0	122	2.48159787099576	1	0	0
139	1	113	71	0	73	0	122	4.79977947403677	0	0	0
140	1	96	18	0	78	0	120	0.71610675402917	1	0	0
141	0	145	12	1	76	0	122	1.17384049500106	1	0	0
142	1	11	33	1	75	0	120	2.31630453496473	1	0	0
143	1	33	121	0	74	0	120	2.09843198599992	1	0	0
144	1	144	54	1	72	0	120	3.35146975005046	1	0	0
145	0	136	39	1	71	0	120	1.31062430498423	0	0	0
146	1	48	130	0	75	0	120	1.40069003601093	1	0	0
147	0	133	14	1	74	0	122	0.973624833975919	1	0	0
148	0	24	106	1	72	0	120	1.72186411597067	0	0	0
149	0	125	31	0	76	0	122	2.46984497003723	1	0	0
150	0	140	15	0	75	0	120	5.81682040001033	0	0	0
151	1	123	18	1	78	0	120	1.40517226903467	1	0	0
152	1	99	79	0	77	0	120	0.915747758001089	1	0	0
153	0	84	91	0	76	0	122	0.884978268994018	1	0	0
154	0	110	32	0	75	0	120	1.74792644003173	0	0	0
155	1	49	90	0	78	0	120	0.870726599998306	1	0	0
156	0	75	30	1	77	0	122	4.60643809201429	1	0	0
157	0	29	80	0	76	0	122	1.32689673895948	1	0	0
158	0	80	112	1	75	0	122	5.20035852503497	1	0	0
159	1	134	93	1	74	0	120	4.74120937800035	1	0	0
160	0	16	59	0	73	0	120	6.7654772180249	0	0	0
161	1	15	136	0	76	0	120	1.20421906700358	1	0	0
162	0	19	26	1	75	0	122	6.01738308998756	1	0	0
163	0	69	75	0	74	0	122	1.20664397196379	1	0	0
164	1	107	88	0	73	0	120	2.64378177601611	1	0	0
165	0	61	9	1	72	0	122	1.16802861902397	1	0	0
166	0	69	147	1	71	0	122	2.83924624999054	1	0	0
167	0	76	135	1	70	0	122	4.29904190899106	1	0	0
168	1	115	4	0	69	0	120	1.13746335997712	1	0	0
169	0	32	100	1	68	0	120	1.10874444601359	0	0	0
170	1	78	131	1	71	0	120	1.37427342799492	1	0	0
171	0	124	41	1	70	0	120	0.869409260980319	0	0	0
172	1	52	127	0	72	0	122	3.37698544905288	0	0	0
173	1	101	112	0	75	0	120	5.48761747404933	1	0	0
174	1	20	16	0	74	0	120	5.29756916000042	1	0	0
175	0	32	73	1	73	0	122	1.32215414900566	1	0	0
176	0	45	149	0	72	0	122	1.04393066797638	1	0	0
177	1	81	142	0	71	0	120	1.34391483804211	1	0	0
178	1	106	113	0	71	0	120	1.11976138595492	1	0	0
179	1	143	86	1	70	0	122	2.01768452400574	0	0	0
180	1	122	30	1	72	0	122	2.51057984499494	0	0	0
181	0	28	100	1	75	0	120	8.90368889505044	0	0	0
182	1	40	146	0	78	0	120	1.10456509899814	1	0	0
183	1	98	22	0	77	0	120	1.15472436201526	1	0	0
184	1	15	142	0	76	0	122	4.30640050896909	0	0	0
185	1	125	24	0	79	0	120	17.9315683650202	1	0	0
186	0	109	49	1	78	0	122	1.34574111399706	1	0	0
187	1	4	22	1	77	0	120	1.40198060602415	1	0	0
188	0	35	4	1	76	0	120	2.72674484102754	0	0	0
189	0	47	77	0	79	0	122	0.800337074964773	1	0	0
190	0	26	27	0	78	0	122	5.32304655498592	1	0	0
191	1	112	31	0	77	0	120	6.36459285800811	1	0	0
192	0	46	32	0	76	0	120	2.4365024639992	0	0	0
193	1	149	110	1	79	0	122	0.808629711973481	0	0	0
194	1	119	111	0	81	0	120	1.03199584898539	1	0	0
195	0	3	32	1	80	0	120	4.19465367600787	0	0	0
196	0	115	27	0	83	0	122	1.16036224202253	1	0	0
197	1	34	39	1	82	0	122	0.981220019981265	0	0	0
198	0	99	36	1	85	0	120	0.902777035022154	0	0	0
199	1	140	40	0	87	0	120	0.917539728980046	1	0	0
200	0	52	57	1	86	0	120	0.977577546960674	0	0	0
201	0	3	86	0	86	0	122	0.786608881026041	1	0	0
202	1	71	42	0	83	0	122	1.23320878500817	0	0	0
203	0	145	57	0	91	0	122	1.07327809499111	1	0	0
204	1	99	14	0	89	0	120	3.62212209100835	1	0	0
205	1	137	130	1	87	0	122	1.46630983200157	0	0	0
206	1	70	50	0	94	0	122	4.72591252601705	0	0	0
207	0	2	78	0	100	0	122	6.31040762999328	1	0	0
208	1	83	5	0	98	0	122	0.991181171964854	0	0	0
209	1	71	104	0	104	0	122	1.17738112504594	0	0	0
210	1	42	54	1	110	0	122	0.867623212980106	0	0	0
211	1	128	92	1	115	0	122	1.76464137597941	0	0	0
212	1	21	136	1	120	0	120	1.14262222801335	1	0	0
213	1	91	136	1	119	0	120	0.870204701030161	1	0	0
214	1	41	89	0	117	0	120	0.969421056041028	1	0	0
215	1	76	133	1	116	0	120	1.92573465697933	1	0	0
216	0	65	49	0	114	0	122	1.00203835603315	1	0	0
217	1	73	134	0	112	0	120	1.0605925010168	1	0	0
218	1	98	21	0	111	0	120	0.931244112027343	1	0	0
219	0	44	129	0	109	0	122	1.08070437901188	1	0	0
220	1	138	24	1	108	0	120	2.21483763901051	1	0	0
221	0	69	137	0	106	0	122	1.1316672359826	1	0	0
222	0	30	139	1	105	0	122	1.12463888700586	1	0	0
223	1	102	137	0	103	0	120	4.31760937295621	1	0	0
224	1	104	96	1	102	0	120	2.46178782498464	1	0	0
225	0	127	75	0	100	0	122	1.36850327299908	1	0	0
226	0	101	145	0	99	0	120	1.73627470701467	0	0	0
227	1	5	138	0	103	0	120	1.52866781898774	1	0	0
228	0	39	150	0	102	0	122	5.19334427098511	1	0	0
229	1	147	47	1	100	0	120	1.43093407899141	1	0	0
230	0	2	111	1	99	0	122	1.38019893696764	1	0	0
231	0	149	96	1	97	0	122	12.8671481930069	1	0	0
232	1	13	66	1	96	0	122	5.60459933598759	0	0	0
233	1	100	51	1	100	0	120	0.990573995979503	1	0	0
234	0	33	141	1	99	0	120	4.379773269	0	0	0
235	1	119	68	1	103	0	120	0.941791473014746	1	0	0
236	0	74	10	0	101	0	122	1.33888669701992	1	0	0
237	0	67	105	0	100	0	122	6.04651811002987	1	0	0
238	0	118	46	1	99	0	122	0.937497611972503	1	0	0
239	1	100	6	0	98	0	120	0.919020461966284	1	0	0
240	0	67	109	0	96	0	122	1.76305873901583	1	0	0
241	0	55	146	1	95	0	120	4.14693809702294	0	0	0
242	1	3	30	1	99	0	120	1.3703024199931	1	0	0
243	1	73	48	0	98	0	120	0.777681211009622	1	0	0
244	0	123	78	1	97	0	120	1.0885269420105	0	0	0
245	0	8	12	1	100	0	122	1.12008784303907	1	0	0
246	0	111	11	0	99	0	122	1.08378671098035	1	0	0
247	0	33	47	0	98	0	120	1.88657194603002	0	0	0
248	1	144	71	0	101	0	120	0.936566925025545	1	0	0
249	0	34	45	1	100	0	120	2.11031149199698	0	0	0
250	1	16	129	0	103	0	120	1.13109501602594	1	0	0
251	0	17	42	1	102	0	120	6.788101868995	0	0	0
252	0	70	63	0	106	0	122	2.9612036680337	1	0	0
253	0	86	138	1	105	0	122	1.68085787200835	1	0	0
254	0	1	49	1	103	0	122	0.995759439014364	1	0	0
255	0	37	106	0	102	0	120	1.48169633402722	0	0	0
256	0	89	61	1	106	0	120	1.14113135397201	0	0	0
257	1	5	74	0	109	0	120	0.797007051005494	1	0	0
258	0	36	74	1	108	0	122	2.69883273297455	1	0	0
259	0	12	115	0	107	0	122	3.60441252798773	1	0	0
260	0	16	6	0	106	0	120	1.49001327098813	0	0	0
261	1	77	58	0	109	0	122	8.58832116698613	0	0	0
262	1	13	40	0	112	0	120	0.985668136039749	1	0	0
263	1	96	70	0	111	0	120	2.05986091500381	1	0	0
264	1	6	65	1	110	0	120	5.77148317999672	1	0	0
265	1	124	65	1	109	0	120	2.06575131596765	1	0	0
266	0	23	51	0	108	0	120	1.29311166104162	0	0	0
267	1	130	19	1	111	0	122	1.46300350100501	0	0	0
268	0	110	85	0	113	0	120	23.5945162270218	0	0	0
269	0	1	33	0	116	0	122	0.797623032995034	1	0	0
270	0	123	8	0	115	0	122	1.97145020304015	1	0	0
271	0	37	69	1	115	0	122	0.842901528987568	1	0	0
272	0	18	116	0	114	0	122	0.868513424007688	1	0	0
273	1	20	33	1	113	0	120	0.897953925014008	1	0	0
274	0	96	7	0	112	0	122	1.15274933900218	1	0	0
275	0	87	14	0	111	0	122	1.78781995398458	1	0	0
276	1	146	8	0	110	0	120	0.890336968004704	1	0	0
277	1	129	75	1	109	0	120	3.76231093797833	1	0	0
278	0	2	121	1	108	0	122	1.21163079398684	1	0	0
279	1	41	125	1	107	0	120	4.80126313702203	1	0	0
280	0	140	15	1	106	0	122	1.37479470699327	1	0	0
281	0	1	133	0	106	0	122	4.09358507097932	1	0	0
282	1	149	56	0	105	0	122	0.97597422398394	0	0	0
283	1	65	78	1	107	0	120	1.83513317600591	1	0	0
284	0	9	126	0	106	0	122	1.70690356800333	1	0	0
285	1	128	77	1	106	0	120	1.14088755304692	1	0	0
286	0	77	7	1	105	0	122	2.00530713394983	1	0	0
287	1	129	12	1	104	0	120	1.14705371699529	1	0	0
288	1	142	82	0	103	0	120	1.33864637900842	1	0	0
289	0	112	12	1	102	0	122	11.2190167150111	1	0	0
290	0	23	53	1	102	0	122	0.895143478992395	1	0	0
291	1	41	61	1	101	0	122	2.42206307000015	0	0	0
292	1	115	106	1	103	0	122	5.49340484500863	0	0	0
293	1	122	99	1	105	0	120	1.27151469700038	1	0	0
294	0	100	23	0	105	0	120	2.07424955302849	0	0	0
295	0	78	21	1	107	0	122	1.07727272802731	1	0	0
296	1	10	59	0	106	0	120	1.08811344299465	1	0	0
297	0	37	115	1	105	0	120	2.81099723000079	0	0	0
298	0	128	88	0	108	0	120	1.47874243900878	0	0	0
299	1	121	27	0	110	0	120	1.37578672397649	1	0	0
300	1	135	88	0	109	0	120	1.09770333400229	1	0	0
