Trial	Gender_Face1	Face1_nb	Face2_nb	Right_left_flip	Nb_Bubbles	Overlap_Target	Response	RT	Accuracy	Simi2Target	Trial_Reward
1	1	2	31	0	35	0	122	3.25855572998989	1	0	0
2	0	89	86	1	32	0	120	1.72819281101692	1	0	0
3	1	134	148	1	30	0	122	1.49943126307335	1	0	0
4	1	122	98	0	27	0	122	0.777247342979535	1	0	0
5	0	73	3	1	24	0	120	1.06340395798907	1	0	0
6	0	95	134	1	22	0	122	1.60950916400179	0	0	0
7	0	40	119	0	30	0	120	1.38995311898179	1	0	0
8	1	47	57	0	27	0	122	1.4110053780023	1	0	0
9	0	41	60	1	25	0	120	0.958743738010526	1	0	0
10	1	14	123	1	22	0	120	1.8130889920285	0	0	0
11	0	136	123	0	30	0	120	2.12989906000439	1	0	0
12	1	5	14	0	28	0	120	3.08860721508972	0	0	0
13	1	118	23	0	35	0	120	1.34581723599695	0	0	0
14	1	71	3	1	41	0	120	0.920599812990986	0	0	0
15	0	82	3	1	47	0	120	0.951298151980154	1	0	0
16	0	98	54	1	45	0	120	1.32601460500155	1	0	0
17	0	36	38	1	43	0	120	0.884706975077279	1	0	0
18	1	18	87	0	42	0	122	0.990579730016179	1	0	0
19	0	103	97	1	40	0	120	1.3876081641065	1	0	0
20	0	126	33	0	38	0	120	0.977781689027324	1	0	0
21	0	140	135	1	36	0	120	0.783018662012182	1	0	0
22	0	116	58	0	34	0	120	1.38767965801526	1	0	0
23	0	90	130	1	32	0	120	1.52107589691877	1	0	0
24	0	44	95	1	30	0	122	1.20808342797682	0	0	0
25	0	139	134	0	36	0	120	1.30878415098414	1	0	0
26	0	81	64	0	34	0	122	1.29292271996383	0	0	0
27	1	143	109	0	39	0	120	2.25403881899547	0	0	0
28	0	125	62	1	44	0	120	1.63214414007962	1	0	0
29	0	74	51	1	43	0	120	3.02769037301186	1	0	0
30	0	29	24	1	41	0	120	0.902729735011235	1	0	0
31	1	32	118	1	40	0	120	2.10379751503933	0	0	0
32	0	26	13	1	45	0	120	0.759413182968274	1	0	0
33	1	144	56	0	43	0	122	0.926354072988033	1	0	0
34	0	27	80	0	41	0	120	1.46102282998618	1	0	0
35	0	75	79	0	40	0	120	1.79166397999506	1	0	0
36	1	18	44	1	38	0	122	1.51655044197105	1	0	0
37	1	56	68	1	37	0	122	1.68409448897	1	0	0
38	0	11	147	0	35	0	120	2.2931228489615	1	0	0
39	1	103	105	0	34	0	122	1.86969976301771	1	0	0
40	1	34	4	1	33	0	120	2.96658227301668	0	0	0
41	0	150	25	0	37	0	120	1.72395775502082	1	0	0
42	1	43	33	1	36	0	122	1.82947883801535	1	0	0
43	1	57	147	1	34	0	122	1.06464921694715	1	0	0
44	1	78	93	0	33	0	122	0.706577258999459	1	0	0
45	0	78	114	0	32	0	120	0.850295223994181	1	0	0
46	1	62	146	0	30	0	122	1.50186893600039	1	0	0
47	1	89	54	0	29	0	120	4.07742093701381	0	0	0
48	1	85	140	1	33	0	122	1.52707176003605	1	0	0
49	0	85	131	0	32	0	120	0.95176431001164	1	0	0
50	0	50	89	1	30	0	120	1.19594147300813	1	0	0
51	0	55	7	1	29	0	120	0.921751367044635	1	0	0
52	1	138	26	0	28	0	122	1.02546301600523	1	0	0
53	1	15	111	1	27	0	120	1.30863538500853	0	0	0
54	0	42	58	0	30	0	122	1.4447976059746	0	0	0
55	0	117	49	0	34	0	120	0.839576381025836	1	0	0
56	1	117	85	0	33	0	122	1.3783715890022	1	0	0
57	1	52	41	1	31	0	122	1.00031119689811	1	0	0
58	0	33	84	1	30	0	120	1.31703557702713	1	0	0
59	0	141	57	1	29	0	120	1.07695440598764	1	0	0
60	1	98	33	0	28	0	122	0.782180670998059	1	0	0
61	1	110	13	0	27	0	120	0.867785128997639	0	0	0
62	1	15	4	0	30	0	120	1.0214443920413	0	0	0
63	0	57	125	1	34	0	122	1.10536341601983	0	0	0
64	0	30	97	1	37	0	120	1.12948735908139	1	0	0
65	1	7	45	0	36	0	122	0.977244711946696	1	0	0
66	1	104	132	0	35	0	122	1.15854747698177	1	0	0
67	0	91	41	1	34	0	120	2.02072099898942	1	0	0
68	0	118	57	0	33	0	122	2.40925762103871	0	0	0
69	1	8	23	1	36	0	120	1.58905571198557	0	0	0
70	0	92	62	0	39	0	120	2.43437983107287	1	0	0
71	1	122	129	0	38	0	122	1.50902669201605	1	0	0
72	1	40	126	0	37	0	122	2.06973989808466	1	0	0
73	0	71	25	1	36	0	120	1.3187296600081	1	0	0
74	1	54	131	1	35	0	122	1.39103216701187	1	0	0
75	0	111	23	0	34	0	120	1.71508736500982	1	0	0
76	1	24	107	0	33	0	120	1.42796859401278	0	0	0
77	1	103	142	1	36	0	122	1.00683351594489	1	0	0
78	0	19	118	0	35	0	120	2.17922255001031	1	0	0
79	1	107	31	0	34	0	122	0.840912579908036	1	0	0
80	0	86	67	1	33	0	120	1.93919747392647	1	0	0
81	1	115	136	1	32	0	122	1.3067614310421	1	0	0
82	0	3	17	1	31	0	120	3.21087498299312	1	0	0
83	1	139	147	0	30	0	122	3.06241600296926	1	0	0
84	1	106	60	1	29	0	122	2.80137549096253	1	0	0
85	1	17	24	1	28	0	122	1.16520586097613	1	0	0
86	0	93	24	0	28	0	120	1.03397845802829	1	0	0
87	0	118	90	1	27	0	120	1.69324992294423	1	0	0
88	0	123	105	0	26	0	122	2.03948069701437	0	0	0
89	1	147	92	0	28	0	120	1.40955553902313	0	0	0
90	0	77	78	1	31	0	120	1.74256232893094	1	0	0
91	1	144	58	1	30	0	122	5.3973166460637	1	0	0
92	0	79	16	0	29	0	120	0.785981631022878	1	0	0
93	1	14	38	1	29	0	120	6.05571260198485	0	0	0
94	1	49	99	0	31	0	122	1.10574949393049	1	0	0
95	1	26	64	0	30	0	122	1.92198941495735	1	0	0
96	0	138	22	1	29	0	120	0.994307438028045	1	0	0
97	1	65	121	1	29	0	122	1.09491225995589	1	0	0
98	1	51	133	1	28	0	122	0.799445742042735	1	0	0
99	1	101	58	1	27	0	120	0.899927664082497	0	0	0
100	1	26	115	1	29	0	122	2.14108373899944	1	0	0
101	0	99	31	0	29	0	120	1.4248416190967	1	0	0
102	1	87	17	0	26	0	120	1.20717144198716	0	0	0
103	0	82	72	0	34	0	120	0.952369041042402	1	0	0
104	1	94	132	0	32	0	122	1.37215619604103	1	0	0
105	0	107	138	1	30	0	120	1.15355865808669	1	0	0
106	1	126	63	1	28	0	120	0.880043172976002	0	0	0
107	1	62	117	1	35	0	122	1.51371738605667	1	0	0
108	0	148	58	0	33	0	120	0.745930583099835	1	0	0
109	0	83	60	0	30	0	120	0.864888048963621	1	0	0
110	1	65	120	0	28	0	122	1.6429975789506	1	0	0
111	0	98	16	1	26	0	122	4.84619996394031	0	0	0
112	0	105	118	1	33	0	120	1.05580910400022	1	0	0
113	0	1	58	0	31	0	120	1.01031706505455	1	0	0
114	0	75	113	0	29	0	120	0.783029431011528	1	0	0
115	1	61	90	1	27	0	120	0.845044460962527	0	0	0
116	1	93	105	0	33	0	120	0.727088531013578	0	0	0
117	0	69	146	0	39	0	120	0.718169799074531	1	0	0
118	0	10	118	1	37	0	122	3.23891199403442	0	0	0
119	1	58	139	0	42	0	122	1.4339818879962	1	0	0
120	0	145	75	1	40	0	120	0.741396853001788	1	0	0
121	1	141	119	0	39	0	122	1.66058071202133	1	0	0
122	1	100	143	0	37	0	122	0.87060833198484	1	0	0
123	1	31	60	1	35	0	122	1.45636745193042	1	0	0
124	0	54	63	0	34	0	120	1.31498700298835	1	0	0
125	1	127	127	1	32	0	122	0.899088964099064	1	0	0
126	1	20	27	0	31	0	120	1.22792815999128	0	0	0
127	1	56	7	0	35	0	122	0.983386539970525	1	0	0
128	0	148	132	1	34	0	120	0.86028584302403	1	0	0
129	1	133	96	0	32	0	122	1.04682357003912	1	0	0
130	1	36	73	1	31	0	122	1.11420818197075	1	0	0
131	0	94	3	1	29	0	120	1.36954311700538	1	0	0
132	0	105	45	1	28	0	120	1.01599116099533	1	0	0
133	1	107	40	1	26	0	122	1.22798013000283	1	0	0
134	1	16	101	0	25	0	120	1.16734592395369	0	0	0
135	1	69	1	0	29	0	122	1.61388196109328	1	0	0
136	0	50	102	0	28	0	120	1.10559360100888	1	0	0
137	0	28	21	0	26	0	120	1.20973377791233	1	0	0
138	1	56	13	0	25	0	122	1.12590766197536	1	0	0
139	1	57	29	1	24	0	122	1.51001228997484	1	0	0
140	1	140	58	0	22	0	122	0.741891243960708	1	0	0
141	0	62	3	1	21	0	122	1.25315212598071	0	0	0
142	0	81	124	1	25	0	122	0.871294979006052	0	0	0
143	1	72	10	1	29	0	122	1.03227919305209	1	0	0
144	1	52	124	1	27	0	120	1.4760247960221	0	0	0
145	0	130	39	0	31	0	120	1.09332129301038	1	0	0
146	1	141	2	0	30	0	122	1.51049621694256	1	0	0
147	0	142	90	1	29	0	120	1.24677112908103	1	0	0
148	1	114	26	1	28	0	122	1.55423100292683	1	0	0
149	1	112	127	1	26	0	122	1.39248506503645	1	0	0
150	1	15	119	1	25	0	122	1.03766164602712	1	0	0
151	0	19	139	0	24	0	122	0.808840090059675	0	0	0
152	1	79	116	1	28	0	122	0.956968967919238	1	0	0
153	1	19	106	1	26	0	122	1.17842554301023	1	0	0
154	0	91	122	0	25	0	120	1.3049172089668	1	0	0
155	0	82	39	0	24	0	120	0.792688018991612	1	0	0
156	1	81	15	0	23	0	122	1.4299920439953	1	0	0
157	0	94	128	1	22	0	120	1.8410416879924	1	0	0
158	0	110	95	0	21	0	120	1.00331496598665	1	0	0
159	0	150	6	1	20	0	120	1.1840940619586	1	0	0
160	1	102	144	1	19	0	122	1.02235881704837	1	0	0
161	0	59	118	0	18	0	120	3.02554601803422	1	0	0
162	0	131	92	0	17	0	120	0.764925720053725	1	0	0
163	0	99	119	0	16	0	122	2.0905493729515	0	0	0
164	1	140	62	1	19	0	122	0.787174641969614	1	0	0
165	0	150	109	0	18	0	122	2.0888308029389	0	0	0
166	1	28	48	0	21	0	122	0.777685639099218	1	0	0
167	0	36	150	1	20	0	120	1.25539003789891	1	0	0
168	0	120	18	1	19	0	122	1.01780248899013	0	0	0
169	0	119	70	0	22	0	122	1.64560180995613	0	0	0
170	1	111	88	1	25	0	120	2.064646517043	0	0	0
171	1	112	63	0	27	0	122	1.1862037749961	1	0	0
172	1	83	41	1	26	0	122	1.59955484594684	1	0	0
173	1	80	89	0	26	0	122	1.52437785197981	1	0	0
174	0	94	17	0	25	0	120	1.03637686104048	1	0	0
175	1	21	129	1	24	0	122	1.10265424894169	1	0	0
176	1	18	98	1	23	0	122	1.25569487689063	1	0	0
177	0	150	15	1	22	0	120	0.889475207892247	1	0	0
178	0	3	115	0	21	0	122	1.31425644597039	0	0	0
179	0	72	25	1	24	0	122	2.07375584798865	0	0	0
180	0	55	42	1	26	0	120	1.1642716700444	1	0	0
181	1	30	115	1	25	0	120	2.04938914906234	0	0	0
182	1	87	111	0	28	0	120	5.97216359898448	0	0	0
183	1	76	28	1	31	0	120	1.31418524601031	0	0	0
184	0	60	39	0	33	0	120	0.754374898970127	1	0	0
185	0	121	147	1	32	0	120	1.31268147006631	1	0	0
186	1	102	3	1	32	0	122	1.23312822903972	1	0	0
187	1	62	102	1	31	0	122	1.40401351603214	1	0	0
188	1	142	21	1	30	0	122	1.59227579296567	1	0	0
189	0	5	71	1	29	0	120	1.07014203700237	1	0	0
190	0	32	119	1	28	0	120	1.40735978400335	1	0	0
191	1	144	128	0	27	0	120	1.4763030820759	0	0	0
192	0	78	132	1	30	0	120	1.70108420006	1	0	0
193	0	1	104	1	29	0	120	1.5649513809476	1	0	0
194	0	149	100	1	28	0	120	1.03250837593805	1	0	0
195	1	10	29	0	27	0	122	1.07035526295658	1	0	0
196	1	122	13	0	27	0	122	1.12857528799213	1	0	0
197	1	40	115	0	26	0	122	3.25625299697276	1	0	0
198	0	71	104	0	25	0	120	0.970052547054365	1	0	0
199	0	47	38	1	24	0	120	1.54463822604157	1	0	0
200	0	91	144	0	24	0	120	1.26350852497853	1	0	0
201	1	93	15	1	23	0	120	3.77338785398751	0	0	0
202	1	76	69	0	31	0	122	3.332187939086	1	0	0
203	0	49	19	0	28	0	122	0.871396979084238	0	0	0
204	1	142	50	0	35	0	120	1.08765336801298	0	0	0
205	1	58	57	0	42	0	122	0.872023412026465	1	0	0
206	0	29	45	0	40	0	122	1.07338307402097	0	0	0
207	0	60	43	1	46	0	120	0.7160799279809	1	0	0
208	0	80	136	1	44	0	120	0.723997537977993	1	0	0
209	0	144	52	0	42	0	120	0.842643965035677	1	0	0
210	1	126	118	0	40	0	122	1.22157188109122	1	0	0
211	1	128	43	1	39	0	122	0.929306586040184	1	0	0
212	0	105	58	0	37	0	120	0.984710848075338	1	0	0
213	0	120	12	1	35	0	120	2.41400784894358	1	0	0
214	0	23	139	1	33	0	120	0.858567427960224	1	0	0
215	1	143	6	1	31	0	120	1.75635372195393	0	0	0
216	1	54	110	1	37	0	122	0.779270064085722	1	0	0
217	0	143	96	1	35	0	120	0.992203623987734	1	0	0
218	1	96	65	1	33	0	122	1.11666210601106	1	0	0
219	1	146	109	1	32	0	120	1.08574801508803	0	0	0
220	0	27	66	0	36	0	120	0.902360816020519	1	0	0
221	0	42	19	0	35	0	122	0.982703739078715	0	0	0
222	0	3	53	1	40	0	120	0.796574890962802	1	0	0
223	1	130	97	0	38	0	122	0.721062480006367	1	0	0
224	1	125	64	0	36	0	122	0.6086669950746	1	0	0
225	1	45	16	1	35	0	120	1.23773669393267	0	0	0
226	1	37	6	1	39	0	122	1.12816882797051	1	0	0
227	0	111	7	1	38	0	120	1.78343559405766	1	0	0
228	0	144	128	1	37	0	120	0.78083520999644	1	0	0
229	0	139	48	0	35	0	120	1.10634919791482	1	0	0
230	0	62	75	0	34	0	120	0.761632016976364	1	0	0
231	0	27	25	0	32	0	120	2.63263398606796	1	0	0
232	0	106	11	1	31	0	120	1.05179672397207	1	0	0
233	0	21	118	0	30	0	122	1.46900406200439	0	0	0
234	1	141	18	1	34	0	122	0.840426650014706	1	0	0
235	0	28	109	1	32	0	120	1.73132650600746	1	0	0
236	1	26	2	1	31	0	120	0.722062387038022	0	0	0
237	1	74	51	0	35	0	120	0.745846207020804	0	0	0
238	0	34	97	0	39	0	120	1.00866428401787	1	0	0
239	0	47	143	1	37	0	120	0.76503312389832	1	0	0
240	1	84	146	1	36	0	122	0.986370780970901	1	0	0
241	1	66	124	1	35	0	120	0.768103281036019	0	0	0
242	1	134	38	0	39	0	122	0.806222036015242	1	0	0
243	0	95	67	1	37	0	120	0.706197572988458	1	0	0
244	0	64	52	0	36	0	120	0.722645016969182	1	0	0
245	1	47	69	1	35	0	122	0.63359269592911	1	0	0
246	0	141	86	0	34	0	120	0.797527682967484	1	0	0
247	1	10	73	1	33	0	122	0.890518137952313	1	0	0
248	0	101	111	1	32	0	120	0.666813790914603	1	0	0
249	1	60	92	1	30	0	122	0.621193132014014	1	0	0
250	0	73	99	0	29	0	120	1.1200549970381	1	0	0
251	0	54	49	1	28	0	120	0.711903456016444	1	0	0
252	1	41	102	0	27	0	120	0.792030634009279	0	0	0
253	0	68	124	1	30	0	120	0.756482972996309	1	0	0
254	0	97	24	0	29	0	120	0.923995772958733	1	0	0
255	0	17	41	1	28	0	120	0.86717954906635	1	0	0
256	1	150	14	1	27	0	122	1.03580856102053	1	0	0
257	0	18	31	0	26	0	122	1.02431605500169	0	0	0
258	0	57	40	1	29	0	122	1.83448170498013	0	0	0
259	0	31	70	1	32	0	120	1.35757601808291	1	0	0
260	0	98	9	0	31	0	122	1.13210367492866	0	0	0
261	1	78	127	1	34	0	122	0.907903317012824	1	0	0
262	0	70	137	1	33	0	122	0.772433663951233	0	0	0
263	0	39	41	0	36	0	122	0.857900648959912	0	0	0
264	1	11	56	1	39	0	122	1.08421523496509	1	0	0
265	0	8	18	0	38	0	120	1.51015181699768	1	0	0
266	0	55	64	0	37	0	120	1.46922210603952	1	0	0
267	0	41	76	1	36	0	120	1.05539914302062	1	0	0
268	1	28	74	0	35	0	122	0.873292668955401	1	0	0
269	1	84	88	0	34	0	122	0.907355756964535	1	0	0
270	1	150	9	0	34	0	120	1.65141618996859	0	0	0
271	0	122	96	0	36	0	120	0.998246724018827	1	0	0
272	1	27	78	1	35	0	122	0.77002319204621	1	0	0
273	1	15	72	1	35	0	120	0.889252417022362	0	0	0
274	0	21	50	0	37	0	120	1.09751613810658	1	0	0
275	1	40	44	1	36	0	120	0.767783416085877	0	0	0
276	0	127	60	1	39	0	120	0.768263097037561	1	0	0
277	1	145	63	1	38	0	120	0.829965309007093	0	0	0
278	0	124	14	0	41	0	120	0.633456432959065	1	0	0
279	0	142	135	1	40	0	120	0.773289471981116	1	0	0
280	1	87	149	1	39	0	120	3.66672438092064	0	0	0
281	1	109	122	1	42	0	120	0.853256555972621	0	0	0
282	1	76	83	1	44	0	122	0.567250013002194	1	0	0
283	1	61	103	0	44	0	120	0.677523676073179	0	0	0
284	0	15	58	1	46	0	120	1.35007283906452	1	0	0
285	0	123	2	1	45	0	120	1.37333463598043	1	0	0
286	1	149	8	0	45	0	120	0.80176444305107	0	0	0
287	1	101	66	0	47	0	120	0.871427064063028	0	0	0
288	0	12	64	0	50	0	120	0.78461820690427	1	0	0
289	0	58	73	0	49	0	120	0.773985803010873	1	0	0
290	1	120	100	0	48	0	120	0.610264774993993	0	0	0
291	0	98	129	1	51	0	120	1.49539000901859	1	0	0
292	0	113	66	1	50	0	120	0.785156529047526	1	0	0
293	0	59	75	1	49	0	120	0.846072059008293	1	0	0
294	1	26	10	0	48	0	120	1.42497374594677	0	0	0
295	1	27	144	0	50	0	122	1.26100292208139	1	0	0
296	0	146	46	0	50	0	120	1.07879232591949	1	0	0
297	1	86	79	0	49	0	122	1.06403961102478	1	0	0
298	1	5	17	0	48	0	122	1.09848237002734	1	0	0
299	0	82	113	0	47	0	122	1.40252525708638	0	0	0
300	1	105	4	0	49	0	122	0.846857739030384	1	0	0
