Trial	Gender_Face1	Face1_nb	Face2_nb	Right_left_flip	Nb_Bubbles	Overlap_Target	Response	RT	Accuracy	Simi2Target	Trial_Reward
1	0	139	61	1	28	0	122	3.2137141309795	1	0	0
2	1	65	145	1	25	0	120	0.985953381983563	1	0	0
3	0	45	92	0	23	0	122	2.95628715999192	1	0	0
4	0	141	35	1	20	0	122	0.755719872948248	1	0	0
5	1	132	4	1	18	0	120	0.682563231035601	1	0	0
6	1	97	124	0	15	0	120	0.802598120004404	1	0	0
7	1	55	127	0	13	0	120	1.05568012897857	1	0	0
8	1	75	35	1	10	0	120	0.801840353989974	1	0	0
9	1	147	39	0	8	0	122	1.9339724839665	0	0	0
10	0	54	43	0	16	0	122	1.0044512769673	1	0	0
11	1	4	83	0	13	0	120	1.01861992903287	1	0	0
12	0	9	2	0	11	0	122	1.31034167599864	1	0	0
13	1	85	123	0	9	0	122	1.42047211405588	0	0	0
14	0	120	34	0	16	0	122	2.20116361702094	1	0	0
15	1	58	118	1	14	0	120	0.797430381004233	1	0	0
16	0	49	62	1	12	0	120	0.577313862973824	0	0	0
17	0	81	28	1	18	0	122	2.56673161598155	1	0	0
18	0	129	82	0	16	0	120	4.63647924101679	0	0	0
19	0	102	75	0	22	0	122	2.30805317399791	1	0	0
20	1	112	149	1	20	0	120	0.68790205597179	1	0	0
21	0	43	47	0	18	0	122	0.855401328997687	1	0	0
22	1	123	48	0	16	0	120	1.05842535698321	1	0	0
23	1	87	48	1	14	0	120	1.55626778799342	1	0	0
24	1	101	16	1	13	0	122	3.89026712300256	0	0	0
25	0	127	101	0	18	0	120	0.61085770704085	0	0	0
26	0	138	2	1	23	0	120	1.33480698702624	0	0	0
27	1	8	23	0	28	0	120	0.654093977005687	1	0	0
28	0	60	142	0	27	0	120	9.41577009600587	0	0	0
29	0	39	43	1	32	0	122	5.47601232101442	1	0	0
30	1	54	131	1	30	0	120	1.40486923698336	1	0	0
31	1	21	37	1	28	0	120	1.34505855303723	1	0	0
32	1	106	121	0	27	0	120	0.872077067033388	1	0	0
33	0	132	115	1	25	0	122	1.28911683498882	1	0	0
34	0	98	53	0	24	0	120	1.29020327900071	0	0	0
35	1	24	17	0	28	0	120	5.282836658007	1	0	0
36	1	102	111	1	27	0	120	1.38781091698911	1	0	0
37	0	59	53	0	25	0	120	0.881423024984542	0	0	0
38	0	104	73	1	30	0	122	0.993889520992525	1	0	0
39	0	79	33	0	28	0	122	0.758660422987305	1	0	0
40	0	102	65	1	27	0	120	1.96471997402841	0	0	0
41	0	148	33	0	31	0	122	0.673690451018047	1	0	0
42	0	142	108	0	30	0	122	0.691291655006353	1	0	0
43	0	133	134	1	29	0	122	3.69182387000183	1	0	0
44	1	44	135	1	27	0	122	2.26918473996921	0	0	0
45	0	26	109	1	31	0	122	1.28583584300941	1	0	0
46	1	84	12	1	30	0	120	1.05425497802207	1	0	0
47	1	46	51	1	29	0	120	1.39275043702219	1	0	0
48	1	42	46	0	27	0	120	4.70195577898994	1	0	0
49	0	102	9	1	26	0	120	2.03715011203894	0	0	0
50	1	129	113	1	30	0	120	2.63222104404122	1	0	0
51	1	66	11	1	29	0	122	1.7147620980395	0	0	0
52	1	79	47	0	32	0	120	12.3475132639869	1	0	0
53	1	8	38	0	31	0	122	2.78561507799895	0	0	0
54	1	92	141	1	35	0	120	0.758038141008001	1	0	0
55	0	64	114	1	34	0	122	1.71650284697535	1	0	0
56	0	144	31	0	33	0	122	0.946225104038604	1	0	0
57	0	139	23	1	31	0	122	1.01802815002156	1	0	0
58	0	106	130	0	30	0	122	1.42989902803674	1	0	0
59	0	71	109	0	29	0	122	0.95273548096884	1	0	0
60	0	94	114	0	28	0	122	1.50347797200084	1	0	0
61	0	91	147	1	27	0	122	1.52727317699464	1	0	0
62	0	124	111	0	26	0	122	1.73365217697574	1	0	0
63	1	102	38	1	25	0	120	1.17361293698195	1	0	0
64	1	137	2	0	24	0	122	1.515239114	0	0	0
65	1	70	127	1	27	0	120	0.810434035025537	1	0	0
66	0	111	141	1	26	0	122	1.50276446604403	1	0	0
67	1	63	109	0	25	0	120	0.743012541963253	1	0	0
68	1	37	90	1	24	0	120	3.19833986199228	1	0	0
69	1	7	55	1	23	0	120	0.721309504006058	1	0	0
70	1	113	29	0	22	0	120	1.01734528597444	1	0	0
71	1	38	110	1	21	0	120	1.53211259900127	1	0	0
72	0	48	142	0	20	0	122	1.18624889903003	1	0	0
73	1	61	119	1	19	0	122	2.0315212039859	0	0	0
74	0	62	95	1	22	0	122	0.867014746007044	1	0	0
75	1	16	17	1	21	0	120	0.972678580030333	1	0	0
76	0	142	108	1	20	0	122	1.73784436302958	1	0	0
77	1	145	125	0	19	0	122	4.03974728402682	0	0	0
78	1	45	52	0	21	0	120	15.9403238379746	1	0	0
79	1	41	25	1	20	0	120	0.777526900987141	1	0	0
80	0	30	122	1	20	0	120	1.95111388299847	0	0	0
81	1	32	111	1	22	0	120	1.02166282996768	1	0	0
82	1	134	41	0	21	0	120	1.81768268800806	1	0	0
83	0	66	91	1	21	0	122	0.853895606007427	1	0	0
84	0	40	105	1	20	0	120	2.54402792896144	0	0	0
85	0	96	131	1	22	0	122	0.815015836968087	1	0	0
86	0	123	9	0	22	0	120	1.64213421795284	0	0	0
87	0	108	67	1	24	0	122	1.30068294599187	1	0	0
88	1	6	66	1	23	0	120	0.901196413964499	1	0	0
89	0	134	14	1	22	0	122	0.964724783028942	1	0	0
90	0	117	8	0	22	0	120	1.36244380800053	0	0	0
91	1	105	30	0	24	0	120	0.736567183979787	1	0	0
92	0	138	138	1	23	0	122	1.13485123001738	1	0	0
93	1	60	10	0	22	0	120	0.813495169044472	1	0	0
94	0	13	150	0	22	0	122	1.31474009400699	1	0	0
95	0	19	78	1	21	0	120	0.785165992972907	0	0	0
96	0	54	67	1	23	0	122	2.31922119198134	1	0	0
97	1	91	64	1	22	0	120	0.630145700997673	1	0	0
98	1	111	11	1	22	0	120	0.881103376974352	1	0	0
99	0	23	139	0	21	0	122	0.817433176969644	1	0	0
100	0	109	117	0	20	0	122	0.942207152023911	1	0	0
101	0	56	122	0	19	0	120	2.38299430703046	0	0	0
102	0	75	126	1	27	0	122	1.4595419280231	1	0	0
103	0	126	83	1	24	0	122	0.538622958993074	1	0	0
104	1	132	27	0	22	0	120	0.899577732023317	1	0	0
105	1	145	66	1	20	0	120	0.755306733015459	1	0	0
106	0	70	72	0	18	0	122	2.40093534201151	1	0	0
107	0	96	2	1	15	0	120	1.60541915695649	0	0	0
108	0	81	59	1	22	0	122	1.1296629520366	1	0	0
109	0	117	4	1	20	0	120	1.63265315705212	0	0	0
110	1	139	140	0	26	0	120	0.715926475997549	1	0	0
111	0	40	138	0	24	0	122	1.16209196398268	1	0	0
112	1	129	131	1	22	0	120	0.79288327600807	1	0	0
113	0	87	132	0	20	0	120	0.941078899020795	0	0	0
114	0	122	69	1	26	0	120	0.732570998952724	0	0	0
115	1	19	37	0	32	0	120	0.755276673997287	1	0	0
116	1	98	146	0	30	0	122	0.530120109964628	0	0	0
117	1	46	86	0	35	0	120	3.64775403798558	1	0	0
118	1	68	43	1	34	0	120	1.09158497699536	1	0	0
119	0	84	74	0	32	0	122	2.37235095299548	1	0	0
120	1	83	58	0	30	0	120	2.97745472501265	1	0	0
121	1	18	20	1	29	0	120	0.694928132987116	1	0	0
122	1	123	12	1	27	0	120	1.63982694299193	1	0	0
123	1	49	99	0	25	0	120	0.809500695031602	1	0	0
124	0	91	4	0	24	0	122	1.38981163100107	1	0	0
125	1	124	101	0	22	0	120	0.969581848999951	1	0	0
126	1	92	97	0	21	0	120	2.31219790800242	1	0	0
127	1	85	19	1	19	0	120	0.671679724007845	1	0	0
128	0	30	23	0	18	0	120	3.44092352699954	0	0	0
129	0	34	135	1	22	0	122	2.89207799400901	1	0	0
130	1	149	142	1	21	0	120	1.2770176550257	1	0	0
131	0	117	64	1	19	0	122	11.0941206070129	1	0	0
132	0	28	122	1	18	0	120	0.895027947961353	0	0	0
133	0	147	106	1	22	0	122	1.6073616759968	1	0	0
134	1	107	15	0	21	0	120	0.995715663011651	1	0	0
135	0	137	55	1	19	0	120	2.44808287895285	0	0	0
136	1	41	1	1	24	0	120	1.01086058095098	1	0	0
137	1	119	149	0	22	0	120	0.606380155018996	1	0	0
138	0	46	13	0	21	0	122	1.04290006298106	1	0	0
139	0	46	45	1	20	0	120	1.38919737702236	0	0	0
140	1	66	27	1	23	0	120	1.24976185604464	1	0	0
141	0	24	44	0	22	0	120	0.93975690100342	0	0	0
142	1	117	56	1	26	0	120	2.27487498300616	1	0	0
143	0	72	66	0	25	0	122	0.804362835013308	1	0	0
144	1	132	50	0	24	0	120	1.22461828403175	1	0	0
145	1	79	33	1	22	0	120	1.28341996803647	1	0	0
146	1	1	92	0	21	0	120	0.88364473200636	1	0	0
147	1	135	7	0	20	0	120	1.86134078499163	1	0	0
148	0	28	100	1	19	0	120	0.935868979024235	0	0	0
149	1	72	110	0	22	0	120	0.701438057003543	1	0	0
150	1	114	65	1	21	0	122	1.73410771600902	0	0	0
151	1	75	59	0	25	0	120	0.846030128013808	1	0	0
152	0	53	54	0	23	0	120	2.57682999502867	0	0	0
153	1	103	68	1	27	0	120	0.910189475980587	1	0	0
154	0	83	31	0	26	0	120	0.797835270990618	0	0	0
155	0	14	35	0	29	0	122	0.762432496005204	1	0	0
156	0	146	114	0	28	0	120	1.67260156699922	0	0	0
157	0	130	76	1	31	0	122	2.16932967596222	1	0	0
158	1	7	56	0	30	0	120	0.814531259005889	1	0	0
159	0	121	10	1	29	0	120	1.30549355602125	0	0	0
160	1	49	28	0	33	0	120	15.2500717529911	1	0	0
161	0	46	144	0	31	0	122	9.33274763601366	1	0	0
162	0	34	91	0	30	0	122	34.8756305669667	1	0	0
163	0	12	59	1	29	0	122	1.79789950599661	1	0	0
164	0	65	51	0	28	0	120	3.03438556101173	0	0	0
165	0	28	44	1	32	0	122	1.9002372980467	1	0	0
166	0	64	102	1	30	0	122	0.696249739965424	1	0	0
167	0	150	85	0	29	0	120	1.12561169802211	0	0	0
168	1	56	40	0	33	0	120	2.2047079129843	1	0	0
169	0	32	43	0	32	0	120	3.34502238896675	0	0	0
170	0	95	17	0	34	0	122	0.694958154985216	1	0	0
171	0	129	91	0	33	0	120	2.48618536099093	0	0	0
172	0	99	107	1	36	0	122	0.928498522029258	1	0	0
173	0	38	18	0	35	0	120	0.720121969992761	0	0	0
174	1	67	97	0	38	0	120	0.719766316993628	1	0	0
175	1	144	52	1	37	0	120	1.0969308349886	1	0	0
176	0	24	55	1	36	0	120	1.5047277790145	0	0	0
177	0	69	10	0	39	0	122	0.872454995987937	1	0	0
178	0	122	133	0	38	0	122	1.63341351499548	1	0	0
179	0	57	122	0	37	0	120	1.15651442296803	0	0	0
180	0	90	150	0	40	0	122	1.33837660797872	1	0	0
181	0	53	36	1	39	0	120	1.80948156199884	0	0	0
182	1	107	81	0	42	0	120	1.90174830000615	1	0	0
183	0	21	143	1	41	0	122	0.909468865022063	1	0	0
184	1	102	37	1	40	0	122	0.789677581982687	0	0	0
185	1	61	129	1	43	0	122	0.674049219000153	0	0	0
186	0	95	124	1	46	0	122	0.739413680974394	1	0	0
187	0	65	59	0	45	0	120	2.46631544997217	0	0	0
188	0	110	100	1	47	0	120	0.796031487989239	0	0	0
189	0	36	37	1	50	0	122	0.768741663952824	1	0	0
190	0	121	30	1	49	0	120	0.909575879981276	0	0	0
191	1	3	56	1	52	0	120	0.933217683050316	1	0	0
192	0	133	89	0	51	0	122	1.07662290101871	1	0	0
193	1	20	60	0	50	0	120	3.16481041000225	1	0	0
194	1	116	114	1	49	0	122	2.77837396698305	0	0	0
195	0	91	78	1	52	0	120	1.3425179879996	0	0	0
196	1	142	82	1	54	0	120	0.87038311001379	1	0	0
197	1	124	114	1	54	0	120	2.96883689897368	1	0	0
198	0	11	21	0	53	0	122	0.726250608975533	1	0	0
199	0	89	66	1	52	0	122	0.957851566956379	1	0	0
200	0	29	110	0	51	0	122	1.10760366404429	1	0	0
201	1	74	64	0	50	0	120	1.47241883398965	1	0	0
202	1	145	10	1	47	0	120	0.611047384038102	1	0	0
203	0	110	148	0	45	0	122	2.46919168502791	1	0	0
204	1	63	88	1	42	0	120	1.3205417660065	1	0	0
205	1	24	126	0	40	0	120	0.879313831042964	1	0	0
206	0	37	125	0	37	0	122	1.72060747002251	1	0	0
207	0	12	104	1	35	0	122	0.944205132022034	1	0	0
208	0	10	140	1	32	0	122	1.45461244299076	1	0	0
209	0	137	139	0	30	0	122	0.689360230986495	1	0	0
210	1	85	88	1	27	0	120	0.665639927960001	1	0	0
211	1	27	22	1	25	0	120	0.915715726965573	1	0	0
212	0	16	86	0	22	0	120	1.15158062602859	0	0	0
213	1	112	49	1	30	0	120	2.16180107404944	1	0	0
214	1	11	75	0	27	0	120	0.815044365997892	1	0	0
215	0	24	38	1	25	0	120	0.867253157950472	0	0	0
216	0	92	2	0	32	0	120	0.901123826974072	0	0	0
217	0	109	33	0	39	0	122	0.976164125022478	1	0	0
218	0	52	71	1	37	0	120	1.08308929397026	0	0	0
219	1	27	33	1	43	0	120	0.940374532015994	1	0	0
220	0	75	150	1	41	0	122	1.52258367097238	1	0	0
221	1	58	48	0	39	0	120	1.01008639798965	1	0	0
222	1	23	143	0	37	0	120	0.709562892036047	1	0	0
223	1	11	137	1	35	0	120	1.10913330403855	1	0	0
224	0	16	140	1	33	0	120	2.33260981499916	0	0	0
225	1	74	110	1	39	0	120	0.740589722001459	1	0	0
226	1	33	16	0	37	0	120	1.32725160202244	1	0	0
227	1	49	98	1	35	0	120	0.625403646030463	1	0	0
228	1	87	141	1	34	0	122	1.50069639296271	0	0	0
229	0	139	17	1	39	0	122	1.19752096198499	1	0	0
230	0	114	100	0	37	0	120	1.84148515301058	0	0	0
231	0	124	65	0	42	0	122	0.83676633099094	1	0	0
232	1	64	142	0	41	0	120	0.86344896099763	1	0	0
233	0	24	105	0	39	0	120	1.00005931500345	0	0	0
234	0	18	150	0	44	0	120	0.541380064038094	0	0	0
235	1	81	91	0	48	0	120	0.724185988015961	1	0	0
236	1	109	49	1	47	0	120	1.03515486902324	1	0	0
237	1	88	67	0	45	0	120	0.838191111048218	1	0	0
238	1	9	136	1	44	0	120	2.01792024297174	1	0	0
239	1	40	146	1	42	0	120	0.940822578035295	1	0	0
240	1	95	24	0	41	0	120	0.835891499998979	1	0	0
241	1	110	79	1	40	0	120	1.34998679097043	1	0	0
242	1	69	107	1	38	0	120	0.597266044991557	1	0	0
243	1	11	73	1	37	0	120	0.992540394014213	1	0	0
244	1	76	95	0	35	0	120	1.6382715049549	1	0	0
245	0	122	39	0	34	0	120	1.08871178800473	0	0	0
246	0	76	88	0	38	0	122	1.06547252298333	1	0	0
247	0	136	7	0	37	0	122	0.844357112015132	1	0	0
248	0	23	109	0	35	0	122	0.815621629997622	1	0	0
249	0	94	145	1	34	0	122	0.721637368958909	1	0	0
250	1	78	68	1	33	0	120	0.850358467025217	1	0	0
251	1	45	107	1	32	0	120	1.08527583698742	1	0	0
252	0	21	22	0	30	0	120	0.709206901025027	0	0	0
253	0	120	112	0	34	0	120	0.805254496983252	0	0	0
254	1	140	129	1	38	0	120	0.633661289990414	1	0	0
255	0	101	94	1	37	0	122	0.94031932001235	1	0	0
256	0	111	97	0	35	0	122	1.04407159797847	1	0	0
257	1	17	123	0	34	0	120	1.03877792600542	1	0	0
258	0	136	73	0	33	0	122	1.01664665999124	1	0	0
259	1	39	11	0	32	0	122	0.860042900952976	0	0	0
260	1	90	28	0	35	0	120	0.72670078498777	1	0	0
261	0	63	148	1	34	0	122	1.84551198297413	1	0	0
262	0	130	107	1	33	0	122	0.680782657989766	1	0	0
263	1	121	57	0	32	0	120	0.577539358986542	1	0	0
264	0	63	76	0	31	0	120	1.8702098710346	0	0	0
265	0	125	86	1	34	0	122	9.96785904100398	1	0	0
266	0	126	28	1	33	0	122	1.13379508501384	1	0	0
267	0	85	91	1	32	0	122	1.53224291501101	1	0	0
268	0	120	15	1	31	0	120	0.682560282002669	0	0	0
269	1	136	20	0	34	0	120	0.980289708997589	1	0	0
270	1	91	14	1	33	0	120	0.569623177987523	1	0	0
271	0	80	53	0	32	0	120	1.47097738797311	0	0	0
272	1	69	119	1	35	0	120	0.688465170969721	1	0	0
273	1	77	131	0	34	0	122	2.44147938198876	0	0	0
274	0	61	50	0	37	0	122	0.746868314046878	1	0	0
275	1	128	100	1	36	0	120	0.762760192970745	1	0	0
276	1	135	56	1	35	0	122	2.01695765700424	0	0	0
277	1	121	20	1	38	0	122	1.83546831394779	0	0	0
278	1	67	89	0	41	0	120	0.782945939979982	1	0	0
279	0	127	68	0	40	0	122	1.47563733701827	1	0	0
280	0	36	143	0	39	0	120	1.82828773296205	0	0	0
281	1	116	24	1	42	0	120	1.39238477498293	1	0	0
282	0	28	65	1	41	0	122	0.797532789991237	1	0	0
283	1	96	112	1	40	0	120	1.05752230499638	1	0	0
284	1	25	3	1	39	0	120	2.21070941403741	1	0	0
285	1	116	55	1	38	0	122	1.59064036898781	0	0	0
286	0	8	71	0	41	0	122	10.7800561250187	1	0	0
287	0	125	66	0	40	0	122	1.62552691501332	1	0	0
288	1	62	148	1	39	0	120	2.18026727199322	1	0	0
289	0	129	129	0	38	0	120	1.62534071097616	0	0	0
290	1	94	11	0	41	0	120	1.32405827002367	1	0	0
291	1	63	143	1	40	0	120	1.8516190960072	1	0	0
292	1	125	3	1	39	0	120	0.653672515996732	1	0	0
293	1	11	101	1	38	0	120	0.543649564962834	1	0	0
294	0	69	80	1	37	0	122	1.01513707102276	1	0	0
295	0	146	63	0	37	0	120	1.28311206400394	0	0	0
296	0	149	125	0	39	0	122	0.820255113998428	1	0	0
297	0	140	60	0	38	0	122	0.799149843049236	1	0	0
298	0	46	24	0	37	0	122	2.17118607700104	1	0	0
299	1	39	133	0	37	0	122	1.32920264505083	0	0	0
300	1	113	111	1	39	0	120	1.2558308650041	1	0	0
