Trial	Gender_Face1	Face1_nb	Face2_nb	Right_left_flip	Nb_Bubbles	Overlap_Target	Response	RT	Accuracy	Simi2Target	Trial_Reward
1	0	1	28	0	31	0	122	1.02854550397024	1	0	0
2	0	102	10	0	27	0	122	1.69599073601421	1	0	0
3	0	47	23	0	22	0	122	1.65777545201126	1	0	0
4	1	125	79	0	18	0	120	0.525939251994714	1	0	0
5	1	85	33	1	14	0	120	0.773662167019211	1	0	0
6	1	55	13	1	10	0	120	1.9964427939849	1	0	0
7	0	80	143	0	5	0	120	1.12982820009347	0	0	0
8	0	129	47	1	18	0	122	0.690223625977524	1	0	0
9	1	134	14	0	14	0	122	0.916683841031045	0	0	0
10	0	19	80	0	26	0	122	0.97406856296584	1	0	0
11	1	82	85	0	22	0	120	0.548292320920154	1	0	0
12	1	82	17	0	18	0	120	0.74759392591659	1	0	0
13	1	41	135	0	15	0	122	0.811540023074485	0	0	0
14	1	22	46	0	25	0	120	0.609648290090263	1	0	0
15	1	102	51	0	22	0	120	2.51863824692555	1	0	0
16	0	120	106	1	19	0	122	0.855208394932561	1	0	0
17	1	1	44	0	15	0	120	1.06637067301199	1	0	0
18	0	52	45	0	12	0	120	2.66915368905757	0	0	0
19	1	104	78	1	22	0	122	0.728658856009133	0	0	0
20	0	126	25	0	31	0	122	0.697418080992065	1	0	0
21	1	9	40	1	28	0	120	1.13052363099996	1	0	0
22	1	9	95	1	25	0	120	0.580889370990917	1	0	0
23	0	104	122	1	22	0	122	1.24915463104844	1	0	0
24	1	87	134	0	20	0	120	0.588906288030557	1	0	0
25	0	64	45	1	17	0	120	2.93899443803821	0	0	0
26	1	131	21	1	26	0	120	0.547524695983157	1	0	0
27	1	5	104	1	23	0	120	0.459075851948	1	0	0
28	0	85	42	1	20	0	122	1.9269605979789	1	0	0
29	1	54	70	1	17	0	120	0.998577124904841	1	0	0
30	0	114	14	0	15	0	120	0.852644614060409	0	0	0
31	1	1	15	0	22	0	120	0.464931713999249	1	0	0
32	1	7	150	1	20	0	120	0.636470575002022	1	0	0
33	0	150	58	0	17	0	120	0.535897699999623	0	0	0
34	1	39	14	0	25	0	120	0.488920659990981	1	0	0
35	1	15	141	1	23	0	120	1.53902102995198	1	0	0
36	0	97	139	0	20	0	120	0.715171862044372	0	0	0
37	0	37	148	1	28	0	122	5.50823496596422	1	0	0
38	0	8	36	0	25	0	122	0.621840027044527	1	0	0
39	1	45	91	0	23	0	120	2.65841257199645	1	0	0
40	0	45	129	1	21	0	122	1.35005715000443	1	0	0
41	0	22	101	0	18	0	122	1.26192636194173	1	0	0
42	0	29	131	1	16	0	122	0.816810238058679	1	0	0
43	1	45	61	0	14	0	120	1.34987328096759	1	0	0
44	1	6	72	1	12	0	120	0.965479921083897	1	0	0
45	1	69	6	1	9	0	120	0.509109781007282	1	0	0
46	1	89	34	1	7	0	120	1.51776755298488	1	0	0
47	1	71	46	1	5	0	122	1.73503460898064	0	0	0
48	1	143	30	0	11	0	120	3.13459353300277	1	0	0
49	0	28	132	0	9	0	122	2.25521359103732	1	0	0
50	0	34	42	1	7	0	122	1.44221812998876	1	0	0
51	1	146	99	0	5	0	120	1.25423878501169	1	0	0
52	1	109	20	1	3	0	120	2.81806849595159	1	0	0
53	0	71	95	0	1	0	120	1.66246705304366	0	0	0
54	1	26	30	0	7	0	122	3.56973300199024	0	0	0
55	1	118	149	1	13	0	120	1.4325960270362	1	0	0
56	1	79	27	0	11	0	122	3.52493923099246	0	0	0
57	0	70	78	1	17	0	120	2.02973959001247	0	0	0
58	1	120	16	0	23	0	120	0.729671506094746	1	0	0
59	0	51	48	1	21	0	120	1.02234365604818	0	0	0
60	1	121	87	0	27	0	120	2.37498721899465	1	0	0
61	1	92	105	1	25	0	120	1.72563096904196	1	0	0
62	0	11	131	1	23	0	122	2.66190903901588	1	0	0
63	1	28	28	1	21	0	122	2.45657330902759	0	0	0
64	1	96	54	0	27	0	120	0.787838820950128	1	0	0
65	0	39	136	0	25	0	120	0.681910965940915	0	0	0
66	0	98	142	1	30	0	120	0.500606188899837	0	0	0
67	0	139	32	1	36	0	122	0.926116960006766	1	0	0
68	1	104	34	1	34	0	122	0.718448847997934	0	0	0
69	1	14	11	0	39	0	122	0.863691268023103	0	0	0
70	0	35	139	1	45	0	122	1.73834400903434	1	0	0
71	1	24	78	0	43	0	120	0.530493608908728	1	0	0
72	0	120	106	1	41	0	120	0.7551453380147	0	0	0
73	1	21	123	0	46	0	120	1.52212957094889	1	0	0
74	0	99	65	0	45	0	120	1.12315096298698	0	0	0
75	0	76	7	0	50	0	122	1.49218310799915	1	0	0
76	0	103	57	0	48	0	122	0.533633835962974	1	0	0
77	0	30	68	0	46	0	122	0.869819417013787	1	0	0
78	0	149	121	1	44	0	122	0.953050225041807	1	0	0
79	1	83	113	1	43	0	122	2.94444582099095	0	0	0
80	0	30	61	0	48	0	122	0.607201096019708	1	0	0
81	0	125	104	0	46	0	122	0.868698311038315	1	0	0
82	0	55	137	0	44	0	122	0.647198547958396	1	0	0
83	1	138	149	1	43	0	120	0.723385686054826	1	0	0
84	1	32	76	1	41	0	120	0.875995090929791	1	0	0
85	0	95	118	1	40	0	122	0.91049567097798	1	0	0
86	1	69	98	0	38	0	120	1.97517197695561	1	0	0
87	0	83	27	1	37	0	122	0.686327602015808	1	0	0
88	1	99	86	1	35	0	120	0.520645624026656	1	0	0
89	0	4	67	1	34	0	122	0.568902628961951	1	0	0
90	1	129	111	1	32	0	122	0.737134009948932	0	0	0
91	1	147	77	0	36	0	122	1.16820017097052	0	0	0
92	1	109	131	0	41	0	120	0.639954806072637	1	0	0
93	0	11	70	0	40	0	120	0.619798636063933	0	0	0
94	1	90	89	1	44	0	120	0.968928628019057	1	0	0
95	0	118	87	0	43	0	120	1.57508991693612	0	0	0
96	1	30	137	0	47	0	120	0.73394594702404	1	0	0
97	0	43	109	1	45	0	122	1.34186440601479	1	0	0
98	1	50	7	0	44	0	120	0.814072531997226	1	0	0
99	0	27	74	0	42	0	120	2.02769819891546	0	0	0
100	1	108	112	0	47	0	122	0.863865385064855	0	0	0
101	1	77	129	0	51	0	122	1.2925472620409	0	0	0
102	0	85	58	1	59	0	122	0.59042998496443	1	0	0
103	1	148	90	1	56	0	120	0.82472468004562	1	0	0
104	1	75	127	1	54	0	120	0.562057084986009	1	0	0
105	0	123	38	1	52	0	122	1.87281858804636	1	0	0
106	1	117	10	0	50	0	120	0.529606682015583	1	0	0
107	1	32	56	0	47	0	122	1.10519138898235	0	0	0
108	0	54	75	1	54	0	122	0.928937627933919	1	0	0
109	0	27	146	1	52	0	122	1.65718261990696	1	0	0
110	0	117	82	1	50	0	122	1.10637657495681	1	0	0
111	0	47	65	1	48	0	122	0.811237212037668	1	0	0
112	0	92	78	0	46	0	120	0.57529232907109	0	0	0
113	0	33	74	1	52	0	122	0.574252285063267	1	0	0
114	1	80	54	0	50	0	120	0.791605137987062	1	0	0
115	1	128	140	1	48	0	120	0.847888414049521	1	0	0
116	1	53	74	0	46	0	122	1.49069553497247	0	0	0
117	1	79	49	0	52	0	120	1.01135213905945	1	0	0
118	1	122	45	1	50	0	120	3.32776457199361	1	0	0
119	1	69	150	0	48	0	120	2.22305663395673	1	0	0
120	0	140	140	1	46	0	120	3.36278169311117	0	0	0
121	0	134	104	1	52	0	120	2.77639071294107	0	0	0
122	1	98	142	1	57	0	122	0.973601537989452	0	0	0
123	0	142	19	0	62	0	120	1.07588687096722	0	0	0
124	0	29	75	1	67	0	122	0.853756419965066	1	0	0
125	0	66	61	0	65	0	120	1.61534591508098	0	0	0
126	1	79	5	1	70	0	122	1.09151386399753	0	0	0
127	1	88	12	0	75	0	120	1.44470496103168	1	0	0
128	1	55	87	1	73	0	120	1.24716020305641	1	0	0
129	1	83	92	0	72	0	120	0.930032287025824	1	0	0
130	1	4	148	1	70	0	122	1.27115825994406	0	0	0
131	0	20	87	1	74	0	122	1.10751671507023	1	0	0
132	0	31	128	1	73	0	122	0.931198723032139	1	0	0
133	1	12	140	1	72	0	120	0.962595521006733	1	0	0
134	0	123	67	0	70	0	122	1.03168496699072	1	0	0
135	1	74	88	0	69	0	120	0.660024430020712	1	0	0
136	0	8	131	0	67	0	122	2.52557116094977	1	0	0
137	1	90	43	0	66	0	120	1.10956694500055	1	0	0
138	0	110	105	1	65	0	122	1.21424413204659	1	0	0
139	0	76	94	0	63	0	122	0.746470084995963	1	0	0
140	0	10	63	1	62	0	122	0.701010428019799	1	0	0
141	1	60	132	0	61	0	120	1.56847123999614	1	0	0
142	0	70	4	1	60	0	122	0.949209489044733	1	0	0
143	0	83	64	1	58	0	122	1.00472761190031	1	0	0
144	0	32	38	1	57	0	122	1.85668798699044	1	0	0
145	0	30	60	0	56	0	122	1.86721696099266	1	0	0
146	0	28	99	0	55	0	122	0.900920722982846	1	0	0
147	0	110	95	1	54	0	122	1.11753308796324	1	0	0
148	0	27	102	0	52	0	122	0.50928495102562	1	0	0
149	1	128	84	1	51	0	120	0.877923290012404	1	0	0
150	0	99	147	1	50	0	122	0.655207197996788	1	0	0
151	1	148	16	0	49	0	120	0.944989682990126	1	0	0
152	0	127	138	1	48	0	122	0.720178649993613	1	0	0
153	0	39	76	1	47	0	122	1.74370569095481	1	0	0
154	1	77	110	0	46	0	120	0.582809610059485	1	0	0
155	0	139	140	0	45	0	122	0.764622687012888	1	0	0
156	1	41	60	0	44	0	122	0.673934685066342	0	0	0
157	0	18	88	0	47	0	120	1.49271958507597	0	0	0
158	0	126	10	0	50	0	122	0.581409096950665	1	0	0
159	0	102	45	0	49	0	120	0.722018823027611	0	0	0
160	0	36	12	1	52	0	122	0.697965016006492	1	0	0
161	1	64	28	0	51	0	120	0.730440777959302	1	0	0
162	0	70	115	0	50	0	120	1.00997059803922	0	0	0
163	1	97	44	0	53	0	120	1.03892302908935	1	0	0
164	1	8	114	1	52	0	120	0.873959460994229	1	0	0
165	1	104	105	1	51	0	120	0.819344568997622	1	0	0
166	0	10	70	0	50	0	120	0.903670473955572	0	0	0
167	1	126	39	0	53	0	120	0.607415428967215	1	0	0
168	1	125	114	1	52	0	120	0.540311203920282	1	0	0
169	1	143	120	0	51	0	120	0.554791183909401	1	0	0
170	1	7	90	1	50	0	120	0.464651688933372	1	0	0
171	1	60	17	0	49	0	120	0.371529708965681	1	0	0
172	0	137	144	1	48	0	120	0.449221757939085	0	0	0
173	0	33	45	0	51	0	122	1.00384819495957	1	0	0
174	0	133	10	1	50	0	122	0.663322974927723	1	0	0
175	1	70	73	0	49	0	120	0.465954871964641	1	0	0
176	1	14	1	1	48	0	120	0.699672929011285	1	0	0
177	0	93	69	0	48	0	122	0.692570600076579	1	0	0
178	0	47	73	1	47	0	122	0.701064871042036	1	0	0
179	1	78	67	1	46	0	120	0.813566419994459	1	0	0
180	1	135	102	1	45	0	120	1.098076520022	1	0	0
181	0	109	81	0	44	0	120	0.874376013991423	0	0	0
182	0	59	2	1	47	0	122	0.396025844034739	1	0	0
183	0	5	92	0	46	0	122	1.28886660200078	1	0	0
184	0	113	10	0	45	0	120	0.784837384009734	0	0	0
185	0	29	45	0	48	0	122	1.6546848739963	1	0	0
186	1	51	107	1	47	0	120	0.929078361019492	1	0	0
187	0	23	51	0	46	0	122	0.59198206407018	1	0	0
188	0	92	135	0	45	0	122	2.2933260879945	1	0	0
189	1	42	106	1	44	0	122	1.98897130903788	0	0	0
190	1	98	126	1	47	0	120	0.955311966943555	1	0	0
191	1	132	90	0	46	0	120	1.07382830209099	1	0	0
192	1	76	2	0	45	0	122	0.618741040001623	0	0	0
193	1	106	66	1	47	0	120	0.838086882024072	1	0	0
194	0	79	109	0	47	0	120	0.505439860047773	0	0	0
195	1	12	67	1	49	0	120	3.10653796093538	1	0	0
196	1	34	60	1	48	0	122	0.466799866990186	0	0	0
197	0	13	140	0	51	0	122	0.420580616919324	1	0	0
198	1	93	80	0	50	0	122	0.911699076066725	0	0	0
199	1	21	147	1	52	0	120	0.839221172966063	1	0	0
200	1	103	122	1	51	0	122	0.803018643986434	0	0	0
201	0	83	104	1	54	0	122	2.31820946198422	1	0	0
202	1	90	32	1	51	0	120	0.623271537013352	1	0	0
203	0	29	78	0	49	0	122	1.03932188404724	1	0	0
204	1	99	133	1	46	0	120	0.849387728958391	1	0	0
205	1	26	20	0	44	0	120	1.3164889710024	1	0	0
206	0	47	2	0	41	0	122	1.48469515598845	1	0	0
207	0	86	66	0	39	0	122	0.956687398953363	1	0	0
208	1	34	58	0	36	0	122	1.11631292698439	0	0	0
209	0	78	57	1	44	0	120	0.635942757013254	0	0	0
210	0	107	96	0	51	0	120	3.30284351797309	0	0	0
211	1	25	118	0	57	0	122	0.975287138018757	0	0	0
212	1	148	3	1	64	0	122	1.17332879593596	0	0	0
213	0	51	18	0	70	0	122	1.77884833794087	1	0	0
214	0	150	58	0	68	0	122	1.10435227095149	1	0	0
215	0	22	128	0	66	0	122	1.82549898000434	1	0	0
216	1	12	115	1	64	0	122	1.41267388698179	0	0	0
217	0	122	83	1	70	0	122	0.920729289995506	1	0	0
218	1	61	22	1	68	0	120	1.96021848591045	1	0	0
219	1	142	133	0	66	0	120	1.78959384199698	1	0	0
220	1	5	8	0	65	0	120	3.20252231799532	1	0	0
221	1	131	8	1	63	0	120	1.19102081097662	1	0	0
222	1	40	52	0	61	0	122	1.17995966493618	0	0	0
223	1	33	57	1	66	0	120	1.60105857695453	1	0	0
224	1	108	9	1	65	0	120	1.9825259631034	1	0	0
225	1	127	122	1	63	0	120	1.52333326800726	1	0	0
226	1	125	56	0	61	0	120	2.24999275198206	1	0	0
227	1	78	118	0	60	0	120	1.47032137901988	1	0	0
228	1	54	8	0	58	0	120	2.91912281000987	1	0	0
229	0	104	50	1	57	0	122	1.47935813805088	1	0	0
230	1	42	70	0	55	0	120	0.76823157502804	1	0	0
231	0	150	87	0	54	0	122	1.47849039605353	1	0	0
232	0	147	146	1	52	0	120	1.12731932196766	0	0	0
233	1	60	4	1	57	0	120	0.567878356087022	1	0	0
234	0	127	21	0	55	0	122	1.16497338598128	1	0	0
235	0	93	120	1	54	0	120	0.827971532009542	0	0	0
236	1	112	113	1	58	0	120	0.951347394031473	1	0	0
237	1	139	105	0	57	0	120	3.00506821495946	1	0	0
238	1	89	71	0	56	0	120	1.29760120203719	1	0	0
239	1	113	147	1	54	0	120	1.1380021229852	1	0	0
240	0	122	80	0	53	0	122	0.753327024984173	1	0	0
241	0	4	9	0	52	0	122	1.57598972693086	1	0	0
242	0	15	134	1	50	0	120	0.606053693918511	0	0	0
243	0	129	2	0	54	0	122	0.570604274980724	1	0	0
244	0	30	69	1	53	0	122	3.04834641504567	1	0	0
245	1	77	92	0	52	0	120	0.882827730034478	1	0	0
246	0	139	114	0	50	0	122	0.947799382032827	1	0	0
247	0	100	97	1	49	0	120	0.994462421047501	0	0	0
248	1	12	132	0	53	0	122	0.671600468922406	0	0	0
249	0	50	20	0	56	0	120	0.889881444978528	0	0	0
250	0	146	18	0	60	0	120	4.00996445200872	0	0	0
251	1	72	78	1	63	0	122	0.821803919039667	0	0	0
252	0	74	75	0	67	0	122	0.986305154976435	1	0	0
253	0	19	103	0	66	0	122	5.50271396397147	1	0	0
254	1	119	100	1	65	0	122	2.79919795203023	0	0	0
255	1	50	125	1	68	0	122	1.16400161897764	0	0	0
256	1	66	149	0	72	0	120	1.1462308249902	1	0	0
257	0	83	110	1	70	0	120	1.36834861594252	0	0	0
258	0	99	131	1	74	0	122	0.806268673040904	1	0	0
259	1	15	7	0	73	0	120	0.971059091039933	1	0	0
260	1	79	113	0	72	0	120	2.84924426896032	1	0	0
261	1	95	2	1	71	0	120	0.596224281005561	1	0	0
262	0	103	21	1	69	0	122	0.592017600079998	1	0	0
263	0	150	89	1	68	0	122	0.469447709037922	1	0	0
264	1	61	106	1	67	0	122	0.887474565999582	0	0	0
265	0	45	35	0	70	0	122	0.640974308014847	1	0	0
266	1	89	23	1	69	0	120	0.691513358964585	1	0	0
267	0	42	2	1	68	0	120	1.1647264569765	0	0	0
268	1	23	136	1	71	0	120	0.570553953992203	1	0	0
269	1	128	6	1	70	0	122	0.632509669987485	0	0	0
270	1	32	110	1	73	0	120	0.739714437047951	1	0	0
271	1	98	108	0	72	0	120	0.602926573017612	1	0	0
272	1	146	122	0	71	0	122	1.76702327502426	0	0	0
273	0	4	41	1	74	0	122	1.0124643240124	1	0	0
274	0	111	58	1	73	0	122	3.49677653401159	1	0	0
275	1	69	3	1	72	0	120	0.745889042038471	1	0	0
276	1	135	97	1	71	0	120	0.89650898904074	1	0	0
277	0	146	12	1	70	0	120	1.32906887598801	0	0	0
278	1	20	100	0	73	0	120	1.14383745705709	1	0	0
279	1	22	108	1	72	0	120	0.942696081008762	1	0	0
280	0	14	25	0	71	0	122	0.798205675906502	1	0	0
281	1	8	29	0	71	0	120	0.746218643966131	1	0	0
282	0	83	111	1	70	0	120	1.13625045993831	0	0	0
283	1	131	130	0	72	0	120	0.65675458998885	1	0	0
284	1	10	63	1	71	0	120	1.15455108194146	1	0	0
285	0	13	99	1	71	0	122	1.08174404595047	1	0	0
286	0	139	49	1	70	0	120	1.28218092292082	0	0	0
287	1	93	61	1	72	0	122	1.59611578600015	0	0	0
288	1	28	82	1	75	0	120	0.632819385966286	1	0	0
289	1	25	96	0	74	0	120	1.54052536608651	1	0	0
290	0	127	121	0	73	0	120	0.698294908972457	0	0	0
291	1	138	142	1	76	0	120	0.616616594954394	1	0	0
292	0	131	77	0	75	0	120	0.451624694978818	0	0	0
293	0	45	4	0	78	0	122	0.666217240039259	1	0	0
294	0	30	139	0	77	0	122	0.707996974000707	1	0	0
295	0	43	29	0	76	0	120	1.20449062203988	0	0	0
296	0	86	61	1	78	0	120	1.1683174649952	0	0	0
297	0	122	100	0	81	0	122	1.0065670380136	1	0	0
298	1	144	74	1	80	0	122	1.25816559698433	0	0	0
299	1	135	45	0	82	0	120	1.06885880010668	1	0	0
300	1	16	21	0	82	0	122	0.758754172944464	0	0	0
