Trial	Gender_Face1	Face1_nb	Face2_nb	Right_left_flip	Nb_Bubbles	Overlap_Target	Response	RT	Accuracy	Simi2Target	Trial_Reward
1	0	52	103	1	40	0	120	2.76518053503241	1	0	0
2	0	27	1	1	37	0	122	2.17798231099732	0	0	0
3	1	104	53	0	45	0	122	1.67072873690631	1	0	0
4	0	42	2	0	43	0	120	1.24265002203174	1	0	0
5	1	125	119	1	41	0	122	1.80611126299482	1	0	0
6	0	3	113	0	39	0	120	2.5138091170229	1	0	0
7	0	27	97	0	36	0	122	1.21802040108014	0	0	0
8	0	48	41	1	43	0	122	0.878426822950132	0	0	0
9	0	7	48	1	50	0	120	0.783796363975853	1	0	0
10	0	115	70	0	48	0	120	0.98830669594463	1	0	0
11	0	39	95	1	46	0	122	0.937799272942357	0	0	0
12	1	127	75	1	52	0	122	1.01701693295036	1	0	0
13	0	13	89	0	50	0	120	0.813024114002474	1	0	0
14	1	112	47	0	48	0	122	1.5933137559332	1	0	0
15	1	121	63	1	46	0	122	0.877213662024587	1	0	0
16	0	119	50	1	44	0	122	0.687387673999183	0	0	0
17	0	34	53	0	50	0	120	0.577214717981406	1	0	0
18	0	150	20	0	48	0	120	1.03858204896096	1	0	0
19	0	50	43	0	46	0	120	0.961989638977684	1	0	0
20	0	78	60	0	45	0	122	1.27152440301143	0	0	0
21	1	94	140	0	50	0	120	1.05705162603408	0	0	0
22	0	99	45	1	55	0	120	1.03650433500297	1	0	0
23	0	101	82	0	53	0	122	0.88693359203171	0	0	0
24	0	25	74	1	58	0	120	0.736701440997422	1	0	0
25	1	108	100	1	57	0	122	1.03965153708123	1	0	0
26	1	74	18	0	55	0	122	0.706778836902231	1	0	0
27	0	40	110	1	54	0	120	0.907079149968922	1	0	0
28	0	24	131	0	52	0	120	1.0995794639457	1	0	0
29	0	5	52	0	51	0	120	1.18704472703394	1	0	0
30	1	17	115	1	49	0	122	0.793016065028496	1	0	0
31	1	35	47	1	48	0	120	0.83068861591164	0	0	0
32	1	23	127	1	52	0	120	0.742385295918211	0	0	0
33	1	140	39	1	56	0	120	0.929596294066869	0	0	0
34	1	71	97	1	60	0	122	0.929393606958911	1	0	0
35	1	129	81	1	59	0	122	0.680205921991728	1	0	0
36	0	34	3	1	58	0	120	0.914286591927521	1	0	0
37	0	125	45	0	56	0	120	0.713502387981862	1	0	0
38	1	76	93	1	55	0	122	0.562191335018724	1	0	0
39	1	101	5	1	54	0	122	1.04959015094209	1	0	0
40	0	14	87	1	52	0	122	0.596057467977516	0	0	0
41	0	63	150	0	56	0	120	0.744654726004228	1	0	0
42	1	72	38	0	55	0	120	0.615848895045929	0	0	0
43	1	112	19	1	59	0	120	1.02009030699264	0	0	0
44	0	1	36	0	63	0	120	1.00035665906034	1	0	0
45	0	113	31	1	61	0	120	1.06907746207435	1	0	0
46	0	134	51	0	60	0	122	0.654763768077828	0	0	0
47	1	143	33	0	64	0	122	0.857178826001473	1	0	0
48	0	124	34	1	62	0	120	1.23568967706524	1	0	0
49	0	74	80	1	61	0	120	0.694602745003067	1	0	0
50	1	7	147	0	60	0	122	1.3598136859946	1	0	0
51	1	53	119	0	59	0	122	1.06943751801737	1	0	0
52	1	70	49	0	58	0	122	0.776314454036765	1	0	0
53	1	37	98	1	57	0	120	1.42182534292806	0	0	0
54	0	114	138	0	60	0	122	0.921227946993895	0	0	0
55	0	43	135	1	63	0	120	0.888735149987042	1	0	0
56	0	86	142	1	62	0	120	0.730301567004062	1	0	0
57	0	142	57	1	61	0	120	0.496761246933602	1	0	0
58	0	77	103	1	60	0	120	1.13843254500534	1	0	0
59	1	57	146	1	59	0	122	1.04087011096999	1	0	0
60	1	10	130	1	58	0	122	1.2202594060218	1	0	0
61	0	18	27	1	57	0	122	1.27193190401886	0	0	0
62	1	122	9	1	60	0	122	0.737661545048468	1	0	0
63	0	43	142	0	59	0	120	0.552931386046112	1	0	0
64	0	64	141	1	58	0	120	0.655983070959337	1	0	0
65	0	30	31	0	57	0	120	0.521588361007161	1	0	0
66	1	58	120	0	56	0	120	0.84909194696229	0	0	0
67	0	42	110	1	59	0	120	0.916068949969485	1	0	0
68	1	115	4	1	58	0	120	1.34809880307876	0	0	0
69	1	21	127	1	61	0	122	0.795602934085764	1	0	0
70	1	30	89	1	60	0	122	0.92838561499957	1	0	0
71	1	71	55	0	59	0	122	1.17581781896297	1	0	0
72	0	69	102	0	58	0	120	0.621919263037853	1	0	0
73	1	28	81	1	57	0	122	1.09741282102186	1	0	0
74	0	88	93	0	56	0	120	0.642757110996172	1	0	0
75	0	123	106	1	55	0	122	0.965604176977649	0	0	0
76	0	14	99	0	58	0	122	0.858598546008579	0	0	0
77	1	23	145	0	61	0	122	1.06934603105765	1	0	0
78	1	141	33	0	60	0	120	0.551163916941732	0	0	0
79	0	108	75	1	62	0	120	0.73418899893295	1	0	0
80	1	52	33	1	61	0	122	1.7499527009204	1	0	0
81	0	25	115	1	61	0	122	1.28404398402199	0	0	0
82	1	148	73	0	63	0	120	0.909654567018151	0	0	0
83	1	49	73	1	66	0	122	0.858454558998346	1	0	0
84	1	111	57	0	65	0	120	1.28877181001008	0	0	0
85	0	62	135	1	68	0	120	0.792724758968689	1	0	0
86	0	52	24	1	67	0	120	1.1743162519997	1	0	0
87	1	104	101	1	66	0	122	1.38729324797168	1	0	0
88	0	140	146	0	65	0	120	1.20989436400123	1	0	0
89	1	139	81	0	64	0	122	1.09288102900609	1	0	0
90	0	82	77	1	63	0	120	0.964519395958632	1	0	0
91	0	54	57	1	63	0	120	1.31696215004195	1	0	0
92	1	32	3	0	62	0	122	0.836439645034261	1	0	0
93	1	143	12	0	61	0	122	0.783738960977644	1	0	0
94	0	55	125	0	60	0	120	1.04606567206793	1	0	0
95	0	96	39	0	59	0	120	0.976582809002139	1	0	0
96	0	133	75	1	59	0	122	0.661939206998795	0	0	0
97	1	35	28	0	61	0	120	0.848438976914622	0	0	0
98	0	82	120	0	63	0	120	0.986882882076316	1	0	0
99	0	65	4	0	62	0	122	0.696642165072262	0	0	0
100	0	78	128	1	65	0	122	1.12944732303731	0	0	0
101	1	53	35	0	67	0	122	0.846611015964299	1	0	0
102	1	139	46	0	64	0	122	1.03375085396692	1	0	0
103	1	95	39	1	62	0	120	0.666037674993277	0	0	0
104	0	37	47	1	70	0	120	0.735745482030325	1	0	0
105	0	87	100	0	67	0	122	0.694542102981359	0	0	0
106	0	30	68	1	74	0	120	0.727941989083774	1	0	0
107	0	9	106	0	72	0	122	0.927585527999327	0	0	0
108	0	21	47	0	79	0	120	1.11108835507184	1	0	0
109	1	107	52	0	77	0	122	1.00792699609883	1	0	0
110	1	24	100	0	75	0	122	0.684142078040168	1	0	0
111	0	56	68	1	73	0	120	1.06161991704721	1	0	0
112	1	103	125	0	71	0	120	1.40807386604138	0	0	0
113	1	97	110	0	77	0	122	1.07593913108576	1	0	0
114	1	88	43	1	75	0	122	1.08501083008014	1	0	0
115	1	118	100	0	73	0	122	0.679169149021618	1	0	0
116	1	70	126	0	71	0	122	0.800646777031943	1	0	0
117	0	2	129	1	70	0	122	0.989129350055009	0	0	0
118	1	117	31	0	75	0	122	0.865581383928657	1	0	0
119	0	89	136	1	73	0	120	0.779900012072176	1	0	0
120	0	58	6	0	71	0	120	0.577164779999293	1	0	0
121	0	100	68	0	70	0	120	0.975015123956837	1	0	0
122	0	41	98	0	68	0	120	0.668670692946762	1	0	0
123	1	40	112	0	66	0	120	0.605958175030537	0	0	0
124	0	82	150	0	71	0	122	0.466475361958146	0	0	0
125	0	9	52	0	76	0	122	0.861234282026999	0	0	0
126	1	91	10	0	81	0	122	1.35886008199304	1	0	0
127	1	16	92	1	80	0	120	0.997923307004385	0	0	0
128	0	1	105	0	84	0	120	0.562400851980783	1	0	0
129	0	11	74	1	83	0	120	0.752996867988259	1	0	0
130	1	150	130	1	81	0	122	0.679802297032438	1	0	0
131	1	69	41	0	80	0	122	0.744741003029048	1	0	0
132	1	135	12	0	78	0	120	0.840488745016046	0	0	0
133	0	150	5	0	83	0	120	1.52415898896288	1	0	0
134	1	64	147	1	81	0	122	0.843424538034014	1	0	0
135	0	6	47	0	80	0	120	1.094014244969	1	0	0
136	0	15	71	0	79	0	120	0.583385108038783	1	0	0
137	1	87	136	0	77	0	120	0.684540488990024	0	0	0
138	1	40	140	1	81	0	122	0.669899060972966	1	0	0
139	0	11	81	0	80	0	120	0.664269656059332	1	0	0
140	0	33	115	1	79	0	120	1.16245514899492	1	0	0
141	1	102	24	1	77	0	122	0.75268813490402	1	0	0
142	0	2	64	0	76	0	120	0.80001413798891	1	0	0
143	0	93	137	1	75	0	120	0.652409882983193	1	0	0
144	1	109	48	0	74	0	120	1.08719639305491	0	0	0
145	1	112	114	0	77	0	122	0.583941718912683	1	0	0
146	1	146	102	1	76	0	120	0.701441453071311	0	0	0
147	0	93	56	1	80	0	120	0.999007691978477	1	0	0
148	1	60	120	1	79	0	122	0.514660896034911	1	0	0
149	1	61	8	1	77	0	120	0.739580009016208	0	0	0
150	1	110	86	0	81	0	122	0.794172086054459	1	0	0
151	1	57	22	0	80	0	122	0.679266804945655	1	0	0
152	1	32	44	1	79	0	120	0.632826203014702	0	0	0
153	1	98	10	0	82	0	122	1.23587686405517	1	0	0
154	0	114	51	1	81	0	120	0.727373915025964	1	0	0
155	1	149	112	1	80	0	120	0.646623690030538	0	0	0
156	0	147	87	1	83	0	120	0.658353368053213	1	0	0
157	0	30	100	1	82	0	120	0.452225212007761	1	0	0
158	1	51	27	1	81	0	122	0.647019671043381	1	0	0
159	1	108	31	1	80	0	122	0.673303803079762	1	0	0
160	0	94	103	1	79	0	122	0.739926782087423	0	0	0
161	1	8	74	1	82	0	120	0.577998311957344	0	0	0
162	1	112	72	0	85	0	120	0.440071758930571	0	0	0
163	1	64	140	0	88	0	120	0.987045877962373	0	0	0
164	0	46	130	1	92	0	120	2.00795027392451	1	0	0
165	0	62	66	1	91	0	120	0.621352393063717	1	0	0
166	0	150	147	0	89	0	120	0.655824196990579	1	0	0
167	1	137	128	1	88	0	122	0.683447376010008	1	0	0
168	1	33	145	0	87	0	122	1.00492367101833	1	0	0
169	0	16	95	0	86	0	120	0.664800019934773	1	0	0
170	0	104	86	1	85	0	120	1.250868458068	1	0	0
171	1	10	133	0	85	0	122	0.589303874992765	1	0	0
172	1	105	131	0	84	0	122	0.70691710000392	1	0	0
173	0	26	114	1	83	0	120	1.19444046693388	1	0	0
174	0	70	10	0	82	0	120	0.696239629993215	1	0	0
175	1	114	27	0	81	0	120	1.14453475002665	0	0	0
176	1	86	144	1	83	0	122	0.816467968048528	1	0	0
177	0	54	148	0	83	0	122	0.868318683002144	0	0	0
178	0	45	63	0	85	0	120	0.670497911050916	1	0	0
179	1	134	43	1	84	0	122	0.983507390017621	1	0	0
180	1	43	149	1	84	0	122	0.828587258001789	1	0	0
181	1	35	31	1	83	0	120	0.752797205932438	0	0	0
182	1	98	123	0	85	0	122	0.783986011054367	1	0	0
183	1	48	93	1	84	0	122	0.98940925009083	1	0	0
184	0	147	109	1	84	0	120	0.83377379598096	1	0	0
185	1	103	150	0	83	0	120	1.01305143698119	0	0	0
186	1	49	113	0	85	0	122	0.584737303084694	1	0	0
187	0	7	60	1	84	0	120	0.662827530060895	1	0	0
188	1	86	51	1	84	0	122	0.576817555003799	1	0	0
189	1	100	35	0	83	0	120	0.726727804983966	0	0	0
190	1	34	49	1	85	0	122	0.63788569404278	1	0	0
191	1	20	73	0	85	0	122	0.586128977010958	1	0	0
192	0	127	64	0	84	0	120	0.654564752010629	1	0	0
193	1	59	129	0	83	0	122	0.744582379003987	1	0	0
194	1	128	7	1	82	0	122	0.728549118968658	1	0	0
195	1	66	130	1	81	0	122	1.07896435598377	1	0	0
196	0	128	37	1	81	0	120	1.01743654790334	1	0	0
197	0	37	129	1	80	0	120	1.14221512491349	1	0	0
198	1	50	3	0	79	0	122	0.700671058963053	1	0	0
199	1	35	132	0	78	0	120	0.724872812977992	0	0	0
200	1	115	92	1	81	0	122	1.01327225402929	1	0	0
201	1	101	99	1	80	0	120	0.812764831003733	0	0	0
202	0	59	144	1	88	0	120	0.616762074991129	1	0	0
203	1	28	65	1	85	0	122	0.594430571072735	1	0	0
204	0	134	99	0	83	0	120	0.921478372998536	1	0	0
205	0	134	49	0	81	0	120	1.03349906811491	1	0	0
206	0	80	54	1	79	0	120	0.940926366019994	1	0	0
207	1	131	28	1	76	0	120	0.707372521050274	0	0	0
208	1	136	78	1	83	0	122	0.92421953601297	1	0	0
209	1	94	43	1	81	0	122	1.1562642629724	1	0	0
210	1	116	127	1	79	0	122	0.945050695096143	1	0	0
211	0	45	20	1	77	0	120	0.713624886004254	1	0	0
212	1	3	110	0	75	0	122	2.12939547002316	1	0	0
213	1	6	76	1	73	0	122	2.4249087930657	1	0	0
214	1	128	105	1	71	0	120	1.55654382403009	0	0	0
215	1	33	102	1	77	0	122	0.754843345959671	1	0	0
216	0	133	97	0	75	0	122	0.934095775010064	0	0	0
217	1	73	150	0	80	0	122	0.848871154012159	1	0	0
218	0	126	28	0	79	0	120	0.876184856984764	1	0	0
219	0	83	49	1	77	0	122	1.00610925396904	0	0	0
220	1	82	137	0	82	0	122	0.666528785019182	1	0	0
221	0	115	122	0	80	0	120	0.668237306061201	1	0	0
222	1	8	114	0	79	0	122	1.63839515601285	1	0	0
223	1	78	14	1	77	0	122	0.618337974068709	1	0	0
224	1	99	127	1	75	0	122	0.558315873029642	1	0	0
225	0	52	126	1	74	0	120	0.908585749100894	1	0	0
226	1	27	3	0	72	0	122	1.08402752794791	1	0	0
227	0	73	131	1	70	0	122	1.17307014099788	0	0	0
228	0	59	101	1	75	0	120	0.850575522985309	1	0	0
229	0	149	24	0	73	0	120	0.837730566039681	1	0	0
230	1	140	113	1	72	0	122	0.680506157921627	1	0	0
231	0	14	109	0	70	0	120	1.01863966300152	1	0	0
232	0	82	85	1	69	0	120	0.701902355998755	1	0	0
233	1	11	32	1	67	0	122	0.623229637974873	1	0	0
234	0	25	65	0	66	0	120	0.886818318045698	1	0	0
235	1	35	50	0	64	0	120	1.3399613481015	0	0	0
236	1	129	47	1	69	0	122	0.778717498993501	1	0	0
237	0	72	9	0	67	0	120	0.952444105991162	1	0	0
238	1	87	81	0	66	0	122	0.926975782029331	1	0	0
239	1	47	30	0	64	0	122	0.919541248935275	1	0	0
240	0	73	25	1	63	0	122	0.791488209040835	0	0	0
241	1	65	45	1	67	0	122	0.612553984043188	1	0	0
242	0	41	74	1	66	0	120	0.656663288013078	1	0	0
243	0	17	33	0	65	0	120	0.532531414995901	1	0	0
244	1	40	147	1	63	0	122	1.05131222400814	1	0	0
245	0	45	94	1	62	0	120	1.02181158703752	1	0	0
246	1	36	7	1	61	0	122	0.809530504979193	1	0	0
247	1	128	140	1	59	0	122	0.702114595915191	1	0	0
248	1	88	143	0	58	0	122	0.671324223978445	1	0	0
249	0	56	47	1	57	0	122	0.600788265932351	0	0	0
250	0	26	128	1	61	0	120	0.933511506998911	1	0	0
251	1	104	72	1	59	0	122	1.14073690399528	1	0	0
252	0	84	64	0	58	0	120	0.683774493983947	1	0	0
253	1	20	43	0	57	0	122	0.797443503979594	1	0	0
254	1	112	49	0	56	0	122	1.06682288390584	1	0	0
255	1	89	74	0	55	0	122	0.65295398409944	1	0	0
256	0	40	105	0	54	0	120	0.623431444982998	1	0	0
257	1	87	18	0	53	0	122	0.987538198009133	1	0	0
258	0	20	73	1	52	0	122	1.08054961601738	0	0	0
259	1	101	146	1	55	0	120	0.650267491000704	0	0	0
260	0	96	120	0	58	0	120	1.02046272903681	1	0	0
261	1	46	3	1	57	0	122	0.775829027988948	1	0	0
262	0	126	54	0	56	0	120	0.605987889925018	1	0	0
263	1	38	129	1	55	0	122	1.53776735090651	1	0	0
264	0	48	42	1	54	0	122	0.881438578944653	0	0	0
265	0	24	128	0	57	0	122	1.26686274609528	0	0	0
266	1	89	33	1	60	0	122	1.09269861306529	1	0	0
267	0	54	60	0	59	0	120	0.661846233066171	1	0	0
268	1	10	22	0	58	0	120	0.61698343406897	0	0	0
269	1	62	107	1	61	0	122	1.1246088379994	1	0	0
270	0	19	35	1	60	0	122	1.08388749102596	0	0	0
271	1	93	56	0	63	0	120	1.10134845401626	0	0	0
272	1	46	103	1	66	0	122	1.58997469698079	1	0	0
273	0	7	81	1	65	0	120	1.12296323396731	1	0	0
274	0	57	89	0	64	0	120	0.779201928991824	1	0	0
275	1	92	92	0	63	0	122	0.728463444975205	1	0	0
276	1	96	140	1	62	0	122	0.640287045040168	1	0	0
277	0	7	89	0	61	0	120	1.53085638291668	1	0	0
278	0	102	82	0	60	0	120	1.45108134602197	1	0	0
279	0	115	129	0	59	0	120	0.677572385990061	1	0	0
280	0	117	107	1	59	0	120	0.847102283965796	1	0	0
281	1	51	42	0	58	0	122	0.913773369975388	1	0	0
282	1	64	126	0	57	0	122	1.1143950909609	1	0	0
283	1	26	114	0	56	0	122	0.787043957039714	1	0	0
284	0	107	115	0	55	0	122	0.814935724018142	0	0	0
285	1	116	121	0	58	0	122	0.81982198508922	1	0	0
286	1	75	132	1	57	0	120	1.42062718293164	0	0	0
287	1	1	24	1	59	0	122	0.939052138943225	1	0	0
288	1	84	97	0	58	0	122	0.882337716058828	1	0	0
289	1	30	66	0	58	0	122	1.50844278000295	1	0	0
290	0	65	111	0	57	0	120	1.11629768798593	1	0	0
291	0	25	60	1	56	0	122	1.39480567898136	0	0	0
292	1	130	57	1	58	0	122	0.776960848015733	1	0	0
293	0	116	31	1	58	0	120	0.967227149987593	1	0	0
294	0	108	57	1	57	0	120	1.27709156996571	1	0	0
295	1	13	135	0	56	0	120	1.21378691098653	0	0	0
296	1	29	99	1	58	0	120	1.4666765659349	0	0	0
297	0	105	108	1	61	0	120	1.07614737097174	1	0	0
298	1	96	107	0	60	0	122	0.613752428907901	1	0	0
299	0	107	51	0	59	0	122	1.17881637206301	0	0	0
300	1	98	142	0	61	0	122	1.1684988939669	1	0	0
