Trial	Gender_Face1	Face1_nb	Face2_nb	Right_left_flip	Nb_Bubbles	Overlap_Target	Response	RT	Accuracy	Simi2Target	Trial_Reward
1	1	52	130	1	85	0	122	1.51129014600008	1	0	0
2	0	106	85	1	82	0	120	2.21593197499999	1	0	0
3	0	118	37	0	78	0	120	0.602877040000067	1	0	0
4	0	28	60	1	75	0	122	1.37396757900001	0	0	0
5	1	88	134	1	85	0	122	4.41393256699985	1	0	0
6	1	93	101	1	82	0	120	2.5007081409999	0	0	0
7	1	8	123	0	92	0	120	3.58233168800007	0	0	0
8	0	114	84	0	100	0	120	0.754649601999972	1	0	0
9	0	71	115	1	98	0	120	0.537468562000186	1	0	0
10	1	6	88	0	95	0	122	0.524715288000152	1	0	0
11	1	85	96	0	93	0	122	0.736521831000118	1	0	0
12	1	66	142	1	90	0	122	1.46607436400018	1	0	0
13	1	39	82	1	87	0	122	1.06247973900008	1	0	0
14	0	50	43	0	85	0	120	0.793322103000037	1	0	0
15	1	107	57	1	82	0	122	0.590566394000007	1	0	0
16	1	44	90	1	80	0	120	2.87004813099998	0	0	0
17	0	144	95	1	87	0	120	1.46077945499997	1	0	0
18	0	148	132	0	85	0	120	2.14578086200004	1	0	0
19	0	32	38	1	82	0	120	1.4476697189998	1	0	0
20	1	54	93	1	80	0	122	0.65183339500004	1	0	0
21	0	20	32	0	78	0	122	0.996472770000082	0	0	0
22	1	31	142	1	85	0	122	1.80073430499988	1	0	0
23	0	130	57	0	83	0	120	1.75846052500015	1	0	0
24	0	80	24	1	80	0	120	5.62767739300011	1	0	0
25	0	43	66	1	78	0	122	4.87837977100003	0	0	0
26	0	37	24	1	85	0	120	2.00823298599994	1	0	0
27	0	68	146	1	83	0	120	0.550587559000178	1	0	0
28	0	7	70	1	80	0	120	0.616316825000013	1	0	0
29	1	110	79	0	78	0	122	1.34532924299992	1	0	0
30	0	1	139	1	76	0	120	0.51315443999988	1	0	0
31	1	5	94	1	74	0	122	3.77489288699985	1	0	0
32	1	63	7	1	72	0	122	0.425789592000001	1	0	0
33	1	51	53	0	71	0	122	0.508388278999973	1	0	0
34	1	22	33	0	69	0	122	0.692670397000029	1	0	0
35	0	1	110	1	67	0	120	1.91170981300002	1	0	0
36	1	41	51	0	65	0	120	1.039606112	0	0	0
37	0	58	131	1	70	0	120	0.638163908000024	1	0	0
38	0	144	140	0	69	0	120	0.924636928000155	1	0	0
39	1	124	123	0	67	0	122	0.735612845000105	1	0	0
40	0	114	92	0	65	0	122	0.882102755999995	0	0	0
41	1	40	59	1	70	0	122	0.913779090999924	1	0	0
42	0	24	23	0	68	0	120	1.13215751799999	1	0	0
43	0	113	86	0	67	0	120	1.41931685999998	1	0	0
44	1	126	60	1	65	0	122	0.664993513999889	1	0	0
45	0	104	118	0	63	0	120	1.16283411299992	1	0	0
46	1	107	81	0	62	0	122	0.510199065000052	1	0	0
47	1	128	4	0	60	0	122	0.897985024999798	1	0	0
48	1	23	3	0	59	0	122	3.47597412999994	1	0	0
49	1	14	129	0	57	0	122	0.512253952000037	1	0	0
50	0	96	34	0	55	0	120	0.67956546299979	1	0	0
51	0	9	81	0	54	0	120	1.3281139300002	1	0	0
52	0	31	30	0	52	0	120	0.992888805999883	1	0	0
53	0	40	24	0	51	0	120	2.76312265299998	1	0	0
54	0	101	92	0	50	0	120	3.99062493300016	1	0	0
55	1	148	46	0	48	0	122	1.29180735799991	1	0	0
56	1	96	114	1	47	0	122	0.734154037000053	1	0	0
57	0	107	84	0	45	0	120	0.986553196000159	1	0	0
58	1	123	35	1	44	0	122	0.626210867000054	1	0	0
59	1	32	126	0	43	0	122	1.36655453499998	1	0	0
60	0	77	127	1	41	0	120	2.15550534199997	1	0	0
61	1	148	62	1	40	0	122	1.40217243400002	1	0	0
62	1	84	59	0	39	0	122	0.43445121600007	1	0	0
63	0	137	21	0	37	0	120	0.516911843999878	1	0	0
64	0	115	95	0	36	0	120	0.686012406000145	1	0	0
65	1	104	146	1	35	0	122	0.857564558999911	1	0	0
66	0	125	144	0	34	0	120	1.11514955899997	1	0	0
67	1	6	100	0	32	0	122	0.513406998000164	1	0	0
68	0	68	61	0	31	0	120	0.886186069999894	1	0	0
69	1	59	119	1	30	0	122	2.50050781800019	1	0	0
70	1	68	41	1	29	0	122	1.06763135400001	1	0	0
71	1	68	77	0	28	0	122	0.499844340000209	1	0	0
72	1	46	11	1	26	0	120	2.43848356600006	0	0	0
73	0	76	59	0	30	0	120	0.55436094200013	1	0	0
74	0	122	73	0	29	0	120	3.84890887900019	1	0	0
75	1	64	28	1	28	0	122	0.741333421000036	1	0	0
76	1	119	83	0	26	0	120	3.34748539299994	0	0	0
77	1	15	50	1	30	0	120	3.81450292799991	0	0	0
78	1	81	74	0	33	0	120	1.53607367199993	0	0	0
79	0	144	117	1	36	0	120	1.1927733189998	1	0	0
80	1	28	34	0	35	0	122	0.571057193999877	1	0	0
81	1	82	24	1	34	0	122	0.530363974000011	1	0	0
82	1	91	34	0	33	0	122	0.898686103000045	1	0	0
83	0	60	86	0	32	0	120	3.59116344100016	1	0	0
84	1	144	15	0	31	0	122	0.63766644999987	1	0	0
85	0	114	25	1	30	0	122	0.473322494000058	0	0	0
86	1	80	61	0	33	0	122	0.555368253000097	1	0	0
87	0	63	110	0	32	0	122	2.6584676089999	0	0	0
88	1	76	61	0	35	0	122	0.539082903000008	1	0	0
89	1	61	20	0	34	0	120	2.13975001999984	0	0	0
90	0	32	18	0	37	0	120	0.96650475399997	1	0	0
91	0	94	121	0	36	0	120	0.538829896000152	1	0	0
92	1	76	42	0	35	0	122	1.82763055200007	1	0	0
93	1	92	72	0	34	0	122	0.598408609999979	1	0	0
94	0	131	57	0	33	0	122	0.550554210999962	0	0	0
95	1	112	61	0	36	0	120	4.63353083100014	0	0	0
96	1	28	41	1	39	0	122	0.7429901779999	1	0	0
97	0	77	131	0	38	0	120	2.15622841100003	1	0	0
98	0	39	78	1	37	0	120	1.35969753299992	1	0	0
99	0	33	91	0	36	0	120	0.77658115700001	1	0	0
100	1	121	132	1	35	0	122	1.83260015299993	1	0	0
101	0	120	36	1	34	0	120	1.30399385999999	1	0	0
102	1	55	91	1	31	0	122	0.651097082999968	1	0	0
103	1	127	41	1	29	0	122	0.641946560999941	1	0	0
104	0	96	112	0	26	0	120	0.767494658000032	1	0	0
105	0	115	15	0	24	0	122	1.48482185600005	0	0	0
106	0	147	101	0	31	0	122	0.967302644000029	0	0	0
107	0	108	28	0	39	0	120	0.719390722000071	1	0	0
108	1	17	56	0	37	0	122	0.504014168999902	1	0	0
109	0	144	85	1	34	0	120	2.17720712300002	1	0	0
110	0	150	116	1	32	0	122	1.48503092099986	0	0	0
111	1	105	45	1	39	0	122	0.618039813999985	1	0	0
112	1	147	123	0	37	0	122	1.67881453999985	1	0	0
113	1	144	147	0	35	0	122	2.04124666600001	1	0	0
114	1	71	69	1	33	0	120	2.53316378699992	0	0	0
115	1	147	36	0	39	0	122	4.26178871100001	1	0	0
116	0	86	139	1	37	0	120	3.52157759900001	1	0	0
117	1	119	39	0	35	0	120	7.96936365900001	0	0	0
118	1	62	144	1	41	0	122	0.761652153000114	1	0	0
119	1	58	129	1	39	0	122	0.536257575000036	1	0	0
120	1	30	59	0	37	0	122	2.73332354399986	1	0	0
121	0	73	60	0	35	0	122	1.70903720199999	0	0	0
122	0	101	147	0	41	0	120	1.07290295500002	1	0	0
123	1	94	28	1	39	0	122	0.555284067000002	1	0	0
124	0	124	22	0	37	0	120	0.822681857000134	1	0	0
125	1	34	95	0	36	0	122	2.5108705470002	1	0	0
126	0	149	96	1	34	0	120	0.813855691000072	1	0	0
127	0	61	130	1	32	0	120	0.685773092999852	1	0	0
128	1	103	116	1	31	0	122	0.629521404999878	1	0	0
129	1	23	55	1	29	0	122	0.483018206999986	1	0	0
130	1	82	6	0	28	0	122	0.736367072999883	1	0	0
131	0	110	16	0	26	0	120	1.7096364460001	1	0	0
132	1	147	22	0	25	0	120	1.79924630400001	0	0	0
133	1	55	142	0	29	0	122	1.42651863599986	1	0	0
134	0	9	50	0	28	0	120	0.827020958000048	1	0	0
135	1	86	84	1	26	0	120	5.10021556800007	0	0	0
136	1	97	46	1	31	0	122	2.79839411500006	1	0	0
137	0	73	52	0	29	0	122	2.03678942800002	0	0	0
138	0	8	68	0	33	0	122	5.66195410600017	0	0	0
139	0	76	132	0	38	0	120	0.584789973999932	1	0	0
140	0	101	100	0	36	0	120	5.66544812699999	1	0	0
141	0	145	6	1	35	0	120	2.44358071700003	1	0	0
142	1	29	149	1	34	0	120	0.869789098999945	0	0	0
143	0	3	63	1	37	0	120	1.32410287599987	1	0	0
144	1	17	84	1	36	0	122	0.742022485999996	1	0	0
145	0	87	17	0	35	0	120	1.94563531000017	1	0	0
146	0	97	136	0	34	0	120	0.689498435999894	1	0	0
147	0	128	95	0	32	0	122	0.672894409000037	0	0	0
148	1	65	131	0	36	0	122	0.631102302000045	1	0	0
149	0	114	79	1	35	0	122	0.770418503999963	0	0	0
150	0	15	64	1	39	0	120	1.53611891899982	1	0	0
151	0	10	97	1	37	0	120	1.24137078900003	1	0	0
152	1	109	80	0	36	0	122	0.380272903999867	1	0	0
153	0	29	26	0	35	0	122	3.58641832900003	0	0	0
154	1	150	31	0	38	0	122	0.5948168729999	1	0	0
155	0	74	146	0	37	0	122	8.77934952999999	0	0	0
156	1	110	52	0	41	0	120	1.53777935899984	0	0	0
157	0	11	8	1	44	0	120	1.05530361600017	1	0	0
158	0	11	91	1	43	0	120	0.821118837000085	1	0	0
159	0	5	56	0	42	0	120	1.99342245099979	1	0	0
160	1	10	59	0	41	0	122	0.542380265999782	1	0	0
161	0	85	68	1	40	0	120	1.14981829299995	1	0	0
162	0	39	141	0	39	0	120	0.975747878999982	1	0	0
163	0	34	63	0	38	0	122	1.46620686200004	0	0	0
164	0	54	111	1	41	0	122	2.43492132599999	0	0	0
165	0	32	136	0	44	0	120	2.83757373699996	1	0	0
166	1	119	21	1	43	0	122	3.90599261700004	1	0	0
167	0	49	111	1	42	0	120	0.818846357000211	1	0	0
168	1	4	66	0	41	0	122	1.01819104200013	1	0	0
169	0	95	30	0	40	0	120	2.59523541699991	1	0	0
170	1	19	30	0	39	0	120	4.00924686999997	0	0	0
171	1	102	146	0	42	0	122	1.24088491700013	1	0	0
172	0	34	66	1	41	0	120	0.564346841000088	1	0	0
173	1	82	115	1	40	0	122	0.729448279999815	1	0	0
174	0	89	144	1	39	0	120	1.57341272399981	1	0	0
175	1	119	59	0	38	0	120	4.94532966999986	0	0	0
176	1	86	125	1	41	0	122	0.899291391999895	1	0	0
177	1	12	54	1	40	0	122	0.842536063000125	1	0	0
178	0	137	71	1	39	0	120	0.739616617000138	1	0	0
179	1	98	2	1	38	0	122	0.57611883300001	1	0	0
180	0	113	49	0	37	0	120	1.93028581899989	1	0	0
181	1	88	103	1	36	0	122	0.698395480000045	1	0	0
182	1	83	69	1	36	0	122	0.42870039200011	1	0	0
183	1	9	8	0	35	0	122	1.07483536200016	1	0	0
184	0	18	28	0	34	0	122	2.41789776300016	0	0	0
185	1	150	38	1	36	0	122	0.792133237999906	1	0	0
186	0	86	120	1	35	0	120	0.614000383000075	1	0	0
187	0	123	18	1	35	0	122	3.99947793000001	0	0	0
188	1	42	67	0	37	0	122	5.50507846899995	1	0	0
189	0	143	112	0	36	0	122	5.82867325699999	0	0	0
190	0	97	15	0	39	0	120	1.03843180600006	1	0	0
191	1	61	65	1	38	0	120	0.581008516000111	0	0	0
192	0	103	126	0	40	0	122	0.558267021999882	0	0	0
193	1	118	87	0	43	0	122	1.39176926699997	1	0	0
194	1	57	74	0	42	0	122	1.1450237009999	1	0	0
195	0	4	143	1	41	0	120	0.958470997000177	1	0	0
196	1	74	6	1	40	0	122	0.528502562999847	1	0	0
197	1	103	2	1	40	0	122	2.82592902800002	1	0	0
198	1	147	10	0	39	0	122	0.827045261999956	1	0	0
199	1	48	142	1	38	0	122	0.531180503999849	1	0	0
200	0	73	94	1	37	0	122	0.507878575000177	0	0	0
201	1	25	145	1	40	0	122	1.06209205800019	1	0	0
202	0	87	32	0	37	0	122	0.325842330000114	0	0	0
203	0	1	141	0	45	0	120	0.456156104999991	1	0	0
204	0	14	101	1	43	0	120	1.05912268200018	1	0	0
205	0	113	28	1	41	0	120	0.855014531000052	1	0	0
206	0	6	43	1	39	0	122	0.325207094999996	0	0	0
207	0	70	70	1	46	0	120	0.63379137600009	1	0	0
208	0	120	87	0	44	0	120	0.543631136000158	1	0	0
209	0	144	21	1	41	0	120	0.615355906999866	1	0	0
210	0	147	141	1	39	0	120	0.579589496000153	1	0	0
211	0	48	121	1	37	0	120	1.05834823200007	1	0	0
212	1	87	87	0	35	0	120	0.50004629	0	0	0
213	0	137	109	0	41	0	120	0.547324858000138	1	0	0
214	1	83	65	0	39	0	122	1.11967262500002	1	0	0
215	1	1	10	1	37	0	122	0.667658132000042	1	0	0
216	0	1	68	0	36	0	120	0.685104063999916	1	0	0
217	0	110	111	1	34	0	120	1.9612642919999	1	0	0
218	1	5	85	0	32	0	122	0.474315300999933	1	0	0
219	0	101	48	1	30	0	120	0.676995538000028	1	0	0
220	1	12	41	1	28	0	122	0.478903562999903	1	0	0
221	1	68	72	1	26	0	122	0.479418795000129	1	0	0
222	1	86	103	0	25	0	122	0.930618568	1	0	0
223	0	85	32	1	23	0	120	0.533978943999955	1	0	0
224	0	88	44	1	21	0	122	1.41145644199992	0	0	0
225	0	76	116	0	26	0	120	0.554878142999996	1	0	0
226	1	142	142	0	25	0	122	0.498375354000018	1	0	0
227	0	145	17	1	23	0	122	2.31381473700003	0	0	0
228	1	139	123	1	28	0	122	0.474483324999937	1	0	0
229	0	111	118	0	26	0	120	0.635521467999979	1	0	0
230	0	8	37	0	25	0	120	2.58718404399997	1	0	0
231	1	52	123	0	23	0	122	0.856460366000192	1	0	0
232	0	14	3	1	22	0	120	1.49963635599988	1	0	0
233	0	63	29	1	20	0	120	1.49799195700007	1	0	0
234	0	22	95	0	19	0	122	0.626996073999862	0	0	0
235	0	16	74	1	23	0	122	1.23516170900007	0	0	0
236	1	34	12	1	27	0	122	0.694052284000009	1	0	0
237	1	118	14	0	26	0	120	1.65045584199993	0	0	0
238	1	25	2	1	30	0	122	0.693574336999973	1	0	0
239	0	148	44	1	29	0	120	0.659786187000009	1	0	0
240	0	8	14	0	28	0	120	1.24730010600001	1	0	0
241	0	66	74	0	26	0	122	0.588090540999929	0	0	0
242	0	6	19	1	30	0	122	2.17726105499992	0	0	0
243	1	64	50	1	34	0	122	0.535683971000026	1	0	0
244	1	68	15	0	33	0	122	0.386504790000117	1	0	0
245	1	61	73	0	32	0	120	0.500812300999996	0	0	0
246	0	143	13	0	36	0	120	2.47249806900004	1	0	0
247	1	1	18	1	35	0	122	0.409566576000088	1	0	0
248	0	77	133	0	33	0	120	1.74699954699986	1	0	0
249	0	61	34	0	32	0	120	1.28549352499999	1	0	0
250	0	41	128	0	31	0	120	3.84040468000012	1	0	0
251	0	15	28	1	30	0	122	0.44587281500003	0	0	0
252	1	16	47	0	33	0	122	1.08890565800016	1	0	0
253	1	121	66	1	32	0	122	0.375961284999903	1	0	0
254	0	62	137	1	31	0	120	1.31971474400007	1	0	0
255	0	108	122	0	30	0	120	1.609024138	1	0	0
256	1	80	75	1	28	0	122	2.57355955800017	1	0	0
257	1	67	14	0	27	0	122	0.315892265000002	1	0	0
258	0	32	28	0	26	0	122	0.374294501999884	0	0	0
259	1	128	17	0	30	0	120	0.867430992999971	0	0	0
260	1	57	61	0	33	0	122	0.558635867000021	1	0	0
261	1	25	93	1	32	0	122	0.776657706999913	1	0	0
262	1	34	75	1	31	0	122	0.615911006000033	1	0	0
263	1	95	5	1	30	0	122	0.92638179100004	1	0	0
264	0	16	23	1	29	0	120	0.532173400999909	1	0	0
265	1	108	68	0	28	0	122	0.547001960999978	1	0	0
266	0	52	104	0	27	0	120	0.997577516000092	1	0	0
267	0	98	105	0	26	0	122	0.377449627000033	0	0	0
268	0	24	17	0	28	0	122	0.686598683000057	0	0	0
269	0	30	113	1	31	0	120	0.768413041000031	1	0	0
270	1	141	137	0	30	0	120	0.682464150999976	0	0	0
271	1	86	120	0	33	0	120	0.513110830000187	0	0	0
272	0	18	33	1	36	0	120	3.07051953099995	1	0	0
273	1	131	117	0	35	0	122	0.523835082000005	1	0	0
274	1	27	75	1	34	0	122	0.631501811999897	1	0	0
275	0	25	70	1	33	0	120	1.11224494599992	1	0	0
276	1	77	10	0	32	0	122	0.579174227000067	1	0	0
277	1	69	104	1	32	0	120	2.05110189100014	0	0	0
278	1	41	55	0	34	0	120	0.732250428000043	0	0	0
279	0	43	75	1	37	0	120	1.24285704199997	1	0	0
280	1	64	114	0	36	0	122	0.641712407000114	1	0	0
281	1	84	3	1	35	0	122	0.405405277999989	1	0	0
282	0	57	107	0	35	0	120	0.617500712000037	1	0	0
283	1	7	113	1	34	0	122	0.415692301000036	1	0	0
284	1	123	5	1	33	0	122	1.06040073400004	1	0	0
285	0	57	75	0	32	0	120	0.691705834000004	1	0	0
286	0	64	43	0	31	0	120	0.580937967999944	1	0	0
287	0	77	115	0	30	0	120	0.524954285000149	1	0	0
288	0	117	64	0	29	0	120	0.72112931699985	1	0	0
289	0	15	11	0	28	0	120	0.510087768999938	1	0	0
290	0	42	72	0	28	0	122	1.33652366699994	0	0	0
291	1	54	22	0	30	0	122	0.469424204999996	1	0	0
292	1	100	18	0	29	0	122	0.625516302000051	1	0	0
293	1	142	44	1	28	0	122	0.327427144000012	1	0	0
294	0	128	30	0	28	0	120	0.877435334999973	1	0	0
295	0	116	104	0	27	0	120	0.609981823999988	1	0	0
296	1	84	6	1	26	0	122	0.865950887999816	1	0	0
297	1	44	130	1	25	0	120	1.15511335500014	0	0	0
298	1	97	67	0	27	0	120	1.2410553520001	0	0	0
299	0	141	142	1	30	0	120	0.491853903999981	1	0	0
300	0	1	88	1	29	0	120	1.55893906300003	1	0	0
