Trial	Gender_Face1	Face1_nb	Face2_nb	Right_left_flip	Nb_Bubbles	Overlap_Target	Response	RT	Accuracy	Simi2Target	Trial_Reward
1	1	3	3	0	35	0	122	4.43225899495883	1	0.0600131565868257	11.8869184040358
2	1	63	84	1	32	0	122	0.962785220006481	1	0.0152125037863729	0
3	0	83	109	0	30	0	120	2.39479677198688	1	0.068144830457276	11.8869184040358
4	1	146	67	0	27	0	122	3.62308012903668	1	0.0438615956320479	11.8869184040358
5	0	109	123	0	25	0	120	1.0274409459671	1	0.0954853449161164	11.8869184040872
6	1	87	102	0	22	0	122	0.918683692987543	1	0.0422534370781934	11.8869184085594
7	0	129	58	0	20	0	120	0.824976708972827	1	0.0414426095952926	11.8869184722877
8	1	1	38	0	17	0	122	1.12235655798577	1	0.0200293835350661	0
9	1	93	130	1	15	0	122	1.87269818596542	1	0.021019635472379	0
10	1	87	43	1	12	0	120	0.965843221987598	0	0.0708459696035611	-23.775771479146
11	1	85	74	1	20	0	122	0.669193853042088	1	0.0401247324833739	11.8869184722877
12	0	21	14	1	17	0	120	0.862126137013547	1	0.0135743125192745	0
13	1	112	120	0	15	0	120	2.02667038299842	0	0.0384618824021688	-23.7739051598354
14	1	126	9	1	22	0	120	1.16570292401593	0	0.0139824219340525	-0
15	1	17	74	1	29	0	122	0.742189145996235	1	0.0238463636548414	0
16	1	123	8	1	27	0	122	1.58138920197962	1	0.031020518053589	11.8869184040358
17	1	52	87	1	25	0	122	2.03639741998632	1	0.0867932716658994	11.8869184040872
18	0	9	41	1	23	0	120	1.01624708902091	1	0.0253165652500411	11.886918405141
19	0	24	122	0	21	0	120	2.94772852101596	1	0.0520031701480073	11.8869184218987
20	1	71	125	1	19	0	122	1.53148904099362	1	0.0864081114147073	11.8869186564176
21	1	145	27	1	17	0	120	1.21111927705351	0	0.04690455387315	-23.7738430735273
22	0	80	61	1	23	0	120	1.08817288902355	1	0.0487927423815615	11.886918405141
23	0	17	3	1	21	0	120	0.785670113982633	1	0.034993144830443	11.8869184218987
24	1	51	52	1	19	0	122	0.800765270018019	1	0.0446119199295937	11.8869186564176
25	0	49	131	1	17	0	122	1.06914112000959	0	0.0669468254800698	-23.7738430735273
26	1	146	101	1	23	0	120	0.616266669007018	0	0.02227138944256	-0
27	0	41	138	1	28	0	120	0.915670942980796	1	0.0244207946421423	0
28	0	120	4	1	26	0	120	3.00585446401965	1	0.0546576094212282	11.8869184040486
29	1	10	22	1	25	0	122	2.05808384501142	1	0.0220621123728939	0
30	0	36	126	1	23	0	122	3.60598210000899	0	0.0351723386364302	-23.7738368102819
31	1	78	130	1	28	0	122	2.28119454998523	1	0.0713317650568963	11.8869184040358
32	1	83	110	0	26	0	120	1.85089317697566	0	0.0129917400541994	-0
33	1	33	39	0	31	0	122	4.83943396201357	1	0.0149409665574208	0
34	0	4	15	0	30	0	120	1.19502068200381	1	0.015396420275438	0
35	1	12	144	0	28	0	122	1.0013055090094	1	0.0537041189653048	11.8869184040358
36	1	143	107	0	27	0	122	0.766565063968301	1	0.0705175342824118	11.8869184040358
37	0	60	97	1	25	0	120	0.741300319030415	1	0.0647657746858148	11.8869184040872
38	1	15	51	1	24	0	120	3.61101509496802	0	8.52772734113882e-13	-0
39	0	27	136	0	28	0	120	1.13784518901957	1	0.0927573454811921	11.8869184040358
40	0	10	6	0	27	0	120	0.77777641499415	1	0.0253141727821091	11.8869184040358
41	0	60	14	1	25	0	120	1.28483408398461	1	0.0320613424880152	11.8869184040872
42	1	13	98	0	24	0	122	0.750999802025035	1	0.073028673734826	11.8869184042928
43	1	102	67	1	23	0	122	0.60788159398362	1	0.104648157809425	11.886918405141
44	1	36	29	1	21	0	122	1.4991747890017	1	0.0222147408660042	0
45	0	10	83	1	20	0	120	3.36422630597372	1	0.0456850207566982	11.8869184722877
46	1	134	51	0	19	0	122	1.32271521404618	1	0.0237471379091327	0
47	1	102	24	1	17	0	122	0.868017714004964	1	0.0281185890575364	11.8869215367637
48	0	21	137	1	16	0	120	0.735179768002126	1	0.0367198854756992	11.8869289193812
49	0	122	21	0	15	0	120	2.60527956899023	1	0.0312296178127338	11.8869525799177
50	0	1	42	1	14	0	120	2.1620103160385	1	0.0658607830199856	11.8870259586511
51	0	94	56	0	12	0	120	1.32100991398329	1	0.0306115480317695	11.887885739573
52	0	97	21	1	11	0	122	1.52248200797476	0	0.0668678628916361	-23.7793667519532
53	0	55	70	0	15	0	120	2.63476105500013	1	0.0440283963172397	11.8869525799177
54	0	127	148	0	14	0	120	0.862588231044356	1	0.00313238918640621	0
55	1	90	55	1	12	0	120	1.32955999096157	0	0.0309093267151781	-23.775771479146
56	1	21	12	1	16	0	122	2.13786312303273	1	0.00412988611317832	0
57	1	132	98	0	15	0	122	0.833803863963112	1	0.0313498658856178	11.8869525799177
58	0	50	85	1	14	0	120	0.748854140983894	1	0.0841532270330742	11.8870259586511
59	0	30	65	0	12	0	120	1.06772744900081	1	0.0243315344133364	0
60	1	13	49	0	11	0	122	1.07094578701071	1	0.0356939219747334	11.8896833759766
61	1	126	8	1	10	0	122	1.12917257903609	1	0.0196725164207631	0
62	1	138	67	0	9	0	122	0.874254963942803	1	0.0224756229759634	0
63	0	145	91	0	8	0	120	1.0057030619937	1	0.025048369478334	11.9404121573672
64	1	74	94	1	7	0	120	1.10639095498482	0	0.00107405425239127	-0
65	1	19	32	1	10	0	120	0.993973807024304	0	0.0462883913757171	-23.7891489103738
66	0	81	77	0	13	0	122	1.80028844304616	0	0	-0
67	0	99	52	1	16	0	122	1.87858829001198	0	0.00162062315492431	-0
68	1	89	2	1	20	0	122	0.752414971997496	1	0.0598884676489469	11.8869184722877
69	0	120	57	1	19	0	120	0.728069354954641	1	0.0853375460462215	11.8869186564176
70	1	150	45	0	18	0	122	0.990802745975088	1	0.0381826491254139	11.8869193076962
71	1	145	11	0	16	0	122	0.836394442012534	1	0.0343389045598915	11.8869289193812
72	1	3	41	1	15	0	122	1.657106706989	1	0.00449096157244192	0
73	1	94	89	0	15	0	120	1.65185148001183	0	0.0449120460733118	-23.7739051598354
74	1	34	37	1	17	0	120	6.98420074599562	0	0.0345863863410571	-23.7738430735273
75	0	91	9	1	20	0	120	1.4057929799892	1	0.0358014425180391	11.8869184722877
76	1	117	137	1	19	0	122	0.969945082964841	1	0.0588759850012028	11.8869186564176
77	0	38	146	0	18	0	120	1.84100927395048	1	0.0472635158279754	11.8869193076962
78	1	102	65	1	17	0	122	3.76292961096624	1	0.0219412488588914	0
79	0	87	21	1	16	0	122	0.850968688959256	0	0.0901339736005253	-23.7738578387624
80	0	120	86	1	19	0	120	4.38309915194986	1	0.0152095636810959	0
81	1	11	103	1	18	0	122	1.43626780196792	1	0.00685261257861663	0
82	0	7	90	0	17	0	120	1.70481537398882	1	0.0223398026801327	0
83	1	105	1	0	17	0	122	1.82559774199035	1	1.95057947577755e-06	0
84	1	10	68	1	16	0	122	0.893108661985025	1	0.0270579066978848	11.8869289193812
85	1	44	94	1	15	0	122	1.66285378701286	1	0.072011033769453	11.8869525799177
86	0	6	107	1	14	0	120	0.889728387992363	1	0.0751599668569141	11.8870259586511
87	0	71	97	0	13	0	122	1.05045205395436	0	0.0224920500440158	-0
88	1	23	64	0	16	0	120	1.71887147502275	0	0.0662864491741096	-23.7738578387624
89	1	36	42	1	18	0	120	1.9271900220192	0	0.0194280792318558	-0
90	0	13	108	1	21	0	120	1.9830308429664	1	0.00718891154708313	0
91	1	66	134	1	20	0	122	2.65353189897723	1	0.0523200053270136	11.8869184722877
92	1	51	63	1	19	0	120	0.833036230003927	0	0.031500241921332	-23.7738373128353
93	1	80	104	1	22	0	122	1.47604111698456	1	0.0250009763168171	11.8869184085594
94	1	75	54	1	21	0	122	1.32694603397977	1	0.0190695354227197	0
95	0	90	82	0	20	0	120	1.73592050198931	1	0.0475060386233835	11.8869184722877
96	1	62	10	1	19	0	122	11.0555412230315	1	0.0356302636933905	11.8869186564176
97	1	79	104	1	18	0	122	1.08170302899089	1	0.00350794342311032	0
98	1	19	79	0	17	0	120	1.21202633302892	0	0.0199359584349008	-0
99	1	55	75	1	20	0	122	2.93782143597491	1	0.0415816275261322	11.8869184722877
100	1	62	81	1	19	0	122	2.11255287204403	1	0.0416704977538923	11.8869186564176
101	0	138	46	1	19	0	122	1.22907201695489	0	0.0373575014271603	-24.2027160825826
102	0	29	73	1	27	0	120	0.758451564004645	1	1.3345491627239e-05	0
103	0	4	49	1	24	0	120	1.82380880101118	1	0.0348555399681639	12.1013580412913
104	0	73	72	1	22	0	122	1.50654294894775	0	0.08064385504026	-24.2027160825826
105	0	96	109	0	29	0	120	0.756357556965668	1	0.120404084263222	12.1013580412913
106	0	78	21	1	27	0	120	0.818251902004704	1	0.0725993935330804	12.1013580412913
107	0	62	118	0	25	0	122	3.84578737203265	0	0.0536653166583361	-24.2027160825826
108	0	85	26	1	32	0	120	2.33813974499935	1	0.0367051879050037	12.1013580412913
109	0	17	3	1	30	0	120	1.66577101295115	1	0.0609260511993112	12.1013580412913
110	0	103	43	0	28	0	122	1.69232567603467	0	0.0536482660870473	-24.2027160825826
111	0	127	42	0	33	0	120	1.06138495897176	1	0.0163683170872829	0
112	1	91	28	0	31	0	122	1.36152927897638	1	0.0381843124357175	12.1013580412913
113	1	16	6	1	30	0	122	3.01552755601006	1	0.0738478550108092	12.1013580412913
114	1	127	61	0	28	0	122	0.803667977976147	1	0.0731585121112714	12.1013580412913
115	1	141	44	0	26	0	122	0.792903325986117	1	0.080963401946862	12.1013580412913
116	0	134	145	0	24	0	122	1.56701276800595	0	0.0511918242623361	-24.2027160825826
117	0	138	143	0	30	0	120	0.981917514989618	1	0.0500255700703284	12.1013580412913
118	1	100	79	1	28	0	122	1.02017554797931	1	0.0283745458698109	12.1013580412913
119	0	79	131	0	26	0	120	1.16860988596454	1	0.0617882189381461	12.1013580412913
120	0	8	135	1	25	0	120	1.07903332897695	1	0.0620835161242618	12.1013580412913
121	1	62	32	0	23	0	122	0.905102154996712	1	0.0593904753228374	12.1013580412913
122	1	59	31	0	21	0	120	0.897854929033201	0	0.0232421728431275	-0
123	1	65	149	0	26	0	122	1.21167234500172	1	0.0144462164876805	0
124	1	108	99	0	24	0	120	0.968406378000509	0	0.0145581975123674	-0
125	0	37	1	0	29	0	120	1.12670452595921	1	0.0598024631849387	12.1013580412913
126	1	15	64	0	28	0	120	1.43177878495771	0	0.0323505708474561	-24.2027160825826
127	1	62	135	0	32	0	122	1.54698503098916	1	0.0353078184344868	12.1013580412913
128	0	26	89	1	31	0	120	0.819542239012662	1	0.0621193955777103	12.1013580412913
129	1	80	63	1	29	0	122	1.00743028102443	1	0.0778927686285408	12.1013580412913
130	0	76	67	0	28	0	120	0.764165887027048	1	0.0277255272032054	12.1013580412913
131	1	84	46	1	26	0	122	0.674172136001289	1	0.0239973620173088	0
132	0	6	5	1	25	0	120	0.812599921016954	1	0.0304103709285068	12.1013580412913
133	1	69	2	0	23	0	122	0.905849121976644	1	0.0209754635345813	0
134	1	35	38	0	22	0	122	0.795366140024271	1	0.088821008590071	12.1013580412913
135	1	125	53	0	21	0	122	0.696428054012358	1	0.0633962344488904	12.1013580412913
136	0	141	118	0	19	0	120	0.889069993048906	1	0.0455503558492361	12.1013580412913
137	1	113	83	0	18	0	122	0.811985859996639	1	0.0887609801927178	12.1013580412913
138	0	45	135	1	17	0	120	0.823820493009407	1	0.0393585526002697	12.1013580412913
139	1	100	79	0	15	0	120	5.30532477796078	0	9.94213326241063e-06	-0
140	0	10	131	0	19	0	122	4.88574231899111	0	0.0063911091129029	-0
141	0	11	129	1	23	0	120	0.949649662012234	1	0.0211690486888123	0
142	0	143	38	1	22	0	120	0.901917734998278	1	2.39373562610606e-05	0
143	1	112	38	0	20	0	122	2.42256224900484	1	0.0250873560461169	12.1013580412913
144	0	32	48	0	19	0	122	0.826470255968161	0	0.00703087687086499	-0
145	1	142	22	0	23	0	122	1.2409307580092	1	0.0447323130710218	12.1013580412913
146	1	70	96	1	22	0	122	0.883507251972333	1	0.00275023151923942	0
147	0	81	58	1	21	0	122	6.30073409504257	0	0.0435027526171932	-24.2027160825826
148	1	65	87	0	24	0	122	3.10320135898655	1	0.0239552440303531	0
149	0	27	125	1	23	0	120	0.960270029958338	1	0.039218238105634	12.1013580412913
150	0	93	58	1	22	0	120	1.25159436499234	1	0.0253581133933805	12.1013580412913
151	0	108	87	0	21	0	120	0.777032019977923	1	0.0588353317518924	12.1013580412913
152	0	109	142	1	19	0	120	0.863221940002404	1	0.0533155336858363	12.1013580412913
153	1	102	148	0	18	0	122	0.93734153197147	1	0.0320069957205177	12.1013580412913
154	1	35	28	0	17	0	120	4.20930470200256	0	0.0161047392345953	-0
155	0	99	94	0	21	0	122	0.91755670204293	0	0.0712813532159413	-24.2027160825826
156	0	130	13	0	24	0	120	0.694670366006903	1	0.00395827412236017	0
157	1	62	105	0	23	0	122	1.84080627997173	1	0.0604973497918727	12.1013580412913
158	1	87	48	0	22	0	122	1.32438386598369	1	0.0643140616159076	12.1013580412913
159	1	42	39	0	21	0	120	0.859903663978912	0	0.0369021823344632	-24.2027160825826
160	0	150	103	1	24	0	120	0.814028910011984	1	0.0540535377325352	12.1013580412913
161	0	140	9	1	23	0	122	0.79519553296268	0	0.0136280178638927	-0
162	1	64	107	0	26	0	120	0.929967607022263	0	0.0106629105095775	-0
163	1	19	138	1	29	0	120	1.0096329410444	0	0.0122867430424153	-0
164	0	27	85	1	32	0	120	1.48766537499614	1	0.0306560204467722	12.1013580412913
165	0	83	140	0	31	0	122	1.39419433299918	0	0.0557346687087305	-24.2027160825826
166	1	72	41	0	34	0	120	0.71980452601565	0	0.0734329137506011	-24.2027160825826
167	0	70	51	1	37	0	120	1.51117072295165	1	0.0648924082970464	12.1013580412913
168	0	115	26	1	36	0	120	1.09604805201525	1	0.0295668690365761	12.1013580412913
169	0	136	123	0	35	0	120	0.650216010981239	1	0.0752120376571086	12.1013580412913
170	0	109	137	0	34	0	120	1.79552466800669	1	0.0410124261369338	12.1013580412913
171	1	65	2	0	33	0	122	1.29738490597811	1	0.0556019577677867	12.1013580412913
172	0	121	73	0	32	0	120	1.17071068898076	1	0.0745140913505434	12.1013580412913
173	1	137	22	1	31	0	122	2.09693173703272	1	0.0696451630639426	12.1013580412913
174	1	100	79	1	30	0	122	0.923129449016415	1	0.0436042443350769	12.1013580412913
175	1	128	36	1	29	0	122	1.15437602397287	1	0.0312170015066019	12.1013580412913
176	0	10	54	1	29	0	120	2.3308137760032	1	0.0302343114184008	12.1013580412913
177	0	104	38	1	28	0	120	1.32190926803742	1	0.0779819152477915	12.1013580412913
178	1	53	136	0	27	0	122	0.834612385020591	1	0.0632101112880291	12.1013580412913
179	1	137	134	0	26	0	122	1.52498720400035	1	0.0540465066530168	12.1013580412913
180	1	80	95	0	25	0	120	1.16526500304462	0	0.0546209480269961	-24.2027160825826
181	1	119	48	1	28	0	120	4.41907183697913	0	0.0172157613015023	-0
182	1	74	10	0	30	0	122	1.87266184797045	1	0.0404687577915454	12.1013580412913
183	0	90	145	1	29	0	120	0.7559517089976	1	0.0918719347779436	12.1013580412913
184	1	128	108	0	28	0	122	0.722490346000995	1	0.0529865868011963	12.1013580412913
185	1	32	92	1	27	0	122	0.713795304996893	1	0.0832132277133296	12.1013580412913
186	1	43	35	1	27	0	122	1.27995608898345	1	0.0310645058470811	12.1013580412913
187	1	94	67	0	26	0	120	1.14723848795984	0	0.0295591182474453	-24.2027160825826
188	0	8	72	0	28	0	122	1.97741917497478	0	0.0150352448951018	-0
189	0	68	23	0	31	0	120	0.904787600971758	1	0.0838110859443684	12.1013580412913
190	0	27	123	0	30	0	120	0.689198707987089	1	0.088024949364596	12.1013580412913
191	0	56	117	0	29	0	120	0.724404664011672	1	0.0359305994980047	12.1013580412913
192	0	91	107	1	28	0	122	2.05863606499042	0	0.0478319182179463	-24.2027160825826
193	1	51	142	1	31	0	120	0.653417747991625	0	0.0276910732894681	-24.2027160825826
194	1	129	145	0	33	0	122	0.776888791006058	1	0.0541442040991096	12.1013580412913
195	0	29	112	0	33	0	120	0.823628804006148	1	0.0132464875207742	0
196	0	88	14	1	32	0	122	0.884462241956498	0	0.052050215630772	-24.2027160825826
197	1	52	133	0	34	0	120	0.79080726695247	0	0.0431127949949228	-24.2027160825826
198	1	7	33	1	37	0	122	0.77993931400124	1	0.0987366206121252	12.1013580412913
199	0	2	98	1	36	0	120	0.760382652049884	1	0.0698874474943177	12.1013580412913
200	1	42	6	0	35	0	122	0.840604690019973	1	0.0535664144616377	12.1013580412913
201	0	93	69	0	35	0	120	0.769964927982073	1	0.0421319723914285	11.8568468490586
202	1	149	37	1	32	0	122	0.806173523014877	1	0.0174399907688928	0
203	0	145	50	1	30	0	120	0.932996385032311	1	0.025316618869043	11.8568468491609
204	0	43	20	1	27	0	122	1.84539091499755	0	0.100177535952985	-23.7136937042545
205	0	88	111	0	35	0	120	0.958838227030355	1	0.0336274243685295	11.8568468490586
206	1	58	49	0	33	0	122	1.19888756197179	1	0.0272060549107061	11.8568468490586
207	0	150	109	1	31	0	120	0.979837207007222	1	0.0371961551722366	11.8568468490841
208	1	61	103	1	28	0	122	1.42552197497571	1	0.0521616572703832	11.8568468500303
209	0	91	82	1	26	0	122	2.07762533298228	0	0.115637816549175	-23.7136937170917
210	1	34	29	1	33	0	122	1.62300846900325	1	0.000347361416087733	0
211	1	117	12	1	31	0	122	1.06090997502906	1	0.0344683428273574	11.8568468490841
212	0	104	11	1	29	0	120	0.766722320986446	1	0.0362275833015144	11.8568468493654
213	0	141	109	1	26	0	120	0.774341317010112	1	0.0618843857475177	11.8568468585459
214	1	134	122	0	24	0	122	0.772018088959157	1	3.65758189538073e-06	0
215	1	76	65	1	22	0	122	0.898180300020613	1	0.0733359625944894	11.8568475435492
216	0	53	78	1	20	0	122	2.25156519102165	0	0.0788383706064123	-23.7137041671367
217	1	64	53	0	26	0	122	0.950334921013564	1	0.0668003052298079	11.8568468585459
218	1	73	49	1	24	0	122	0.781031598977279	1	0.021821354310882	0
219	1	103	74	0	22	0	122	2.62827578699216	1	0.0300890181084896	11.8568475435492
220	1	145	84	1	20	0	122	7.60860908799805	1	0.0350385011913153	11.8568520835684
221	1	84	53	0	19	0	122	0.909515584993642	1	0.00896511121855835	0
222	0	44	93	1	17	0	122	2.40688230999513	0	0.0247728022984762	-0
223	1	49	138	0	22	0	122	1.09905016800622	1	0.0121369477264704	0
224	0	23	105	1	21	0	120	0.613748808973469	1	0.0269886673644142	11.8568487759264
225	0	51	118	1	19	0	120	0.713180385995656	1	0.00862848757482472	0
226	1	91	80	1	17	0	122	0.905951307970099	1	0.0592498471497004	11.8569393360433
227	0	28	95	1	15	0	120	0.907763833994977	1	0.0271770282362715	11.8574116802541
228	1	97	15	1	14	0	122	0.956356887996662	1	0.0224071753249713	0
229	0	106	25	1	12	0	120	0.683488427021075	1	3.16269074781705e-05	0
230	0	111	9	1	10	0	120	1.11715072201332	1	0.00986658441541218	0
231	1	71	35	0	9	0	122	1.22970076801721	1	0.0227013185378459	0
232	0	129	27	1	7	0	122	2.13764345797244	0	0.00326833070396902	-0
233	1	62	5	1	12	0	122	1.17717447504401	1	2.63081235784927e-08	0
234	0	123	106	0	10	0	122	3.22575469699223	0	0	-0
235	1	97	19	1	15	0	122	0.788633724034298	1	0.0329798111539113	11.8574116802541
236	0	112	6	1	14	0	122	2.47438389499439	0	0.0418056820336207	-23.7163990349297
237	1	25	149	1	18	0	122	0.803782479953952	1	0.0600973743281745	11.8568831136337
238	1	111	51	0	17	0	122	1.40932653495111	1	9.03845490745651e-06	0
239	1	39	115	0	15	0	120	5.06310566898901	0	0.0350698423683765	-23.7148233605082
240	1	39	63	1	20	0	122	2.01005349605111	1	0.0249955726939243	0
241	1	124	81	0	18	0	120	1.1345628729905	0	0.0320180132491631	-23.7137662272674
242	1	108	137	1	22	0	122	0.695007106987759	1	0.0722230892875772	11.8568475435492
243	0	6	132	0	21	0	120	1.36926392896567	1	0.0215853591450917	0
244	1	114	94	0	20	0	122	0.941933367983438	1	0.0417981798835345	11.8568520835684
245	1	113	117	0	18	0	122	1.23888861603336	1	0.0372038611728796	11.8568831136337
246	0	97	75	0	17	0	120	1.01003811095143	1	0.0647632651958794	11.8569393360433
247	1	69	29	1	16	0	122	1.23050443601096	1	0.000904515931851944	0
248	1	139	120	1	14	0	122	1.53101621201495	1	0.0223252036858641	0
249	0	110	3	1	13	0	120	1.1641965280287	1	0.0238677867617323	0
250	0	45	112	1	12	0	122	0.995176582946442	0	0.0788135180857977	-23.7282699312399
251	1	61	92	1	16	0	122	1.15148134797346	1	0.0657932205076409	11.8570778186849
252	0	114	126	0	14	0	122	2.20699032797711	0	0.00477988745217234	-0
253	1	62	104	1	18	0	120	1.58889735094272	0	0.0256488347715834	-23.7137662272674
254	1	133	87	1	22	0	122	1.34669215098256	1	0.0382739944697174	11.8568475435492
255	1	32	144	1	20	0	122	0.817275898996741	1	0.0193253094284153	0
256	1	7	130	0	19	0	120	3.22111719998065	0	0.0986140481542798	-23.7137215452335
257	1	53	142	1	23	0	122	0.658391654025763	1	0.0485471785828364	11.8568470941428
258	1	122	20	1	21	0	122	7.54841113602743	1	0.0213074819513611	0
259	1	49	122	0	20	0	122	1.03706551500363	1	0.02644852116478	11.8568520835684
260	1	47	93	1	19	0	122	2.54443602601532	1	0.0459913882388715	11.8568607726168
261	0	19	29	1	18	0	120	1.2721914529684	1	0.0746685318868516	11.8568831136337
262	0	67	91	0	17	0	122	1.17001826298656	0	4.83698201976346e-05	-0
263	0	117	118	1	20	0	122	1.67229416605551	0	0.057186431690156	-23.7137041671367
264	1	142	113	0	23	0	122	1.2261159120244	1	0.0748561086393176	11.8568470941428
265	0	98	61	1	22	0	120	1.15814659197349	1	0.0331213178395332	11.8568475435492
266	1	25	28	1	21	0	122	0.748430368956178	1	0.0518192126596305	11.8568487759264
267	1	125	33	0	20	0	122	1.02832155500073	1	0.00414691141605138	0
268	0	24	76	0	19	0	120	1.71944990701741	1	0.0836770884984623	11.8568607726168
269	1	124	13	1	18	0	122	0.825298112991732	1	0.0727142739100804	11.8568831136337
270	0	69	105	1	17	0	120	0.860777063993737	1	0.0281558727514187	11.8569393360433
271	1	105	37	1	16	0	122	1.83136081096018	1	0.0240766026405287	0
272	1	63	107	1	15	0	120	1.33990267600166	0	0.0227244994077279	-0
273	1	24	144	1	18	0	122	1.21085082000354	1	0.116462331433778	11.8568831136337
274	0	32	85	0	17	0	120	0.8880073549808	1	0.0270460359189597	11.8569393360433
275	1	101	15	1	16	0	122	0.883071591029875	1	0.052708467303959	11.8570778186849
276	0	94	149	0	15	0	120	0.956803207984194	1	0.0577492864273278	11.8574116802541
277	0	15	105	0	14	0	122	0.755277958000079	0	0.0620605646710989	-23.7163990349297
278	1	84	118	0	17	0	122	1.1697115850402	1	0.026077085085594	11.8569393360433
279	1	121	141	0	16	0	122	1.12171814899193	1	0.0269748789997628	11.8570778186849
280	0	109	5	0	15	0	120	1.49006719602039	1	0.0165788423087863	0
281	0	110	20	1	14	0	120	1.17946963204304	1	0.0719255078461428	11.8581995174648
282	1	53	2	1	13	0	122	1.68959457398159	1	0.0355253691637326	11.8600193696146
283	0	148	85	1	12	0	120	4.45846222300315	1	0.0125286881365827	0
284	0	3	27	0	12	0	120	1.58164349198341	1	0.0276138384037808	11.8641349656199
285	1	96	66	1	11	0	122	1.00368809397332	1	0.0258323681181523	11.8732502766006
286	1	135	85	0	10	0	122	0.777569800964557	1	0.0535012508984527	11.893036273111
287	1	142	117	1	9	0	122	1.48768031504005	1	0.00463110798840063	0
288	0	117	77	1	8	0	120	1.83262400596868	1	0.0449273330936282	12.0235870825869
289	1	111	127	0	7	0	122	1.19624147599097	1	0.00543388289566313	0
290	1	29	135	1	7	0	122	2.59606026700931	1	2.94345888248406e-10	0
291	1	29	105	1	6	0	120	4.50495297298767	0	1.90725950021356e-09	-0
292	1	39	96	1	8	0	122	0.945231960969977	1	0.00601815644629753	0
293	1	99	99	1	7	0	122	2.67501997103682	1	0.00431180106044935	0
294	1	66	104	1	7	0	120	1.32465307699749	0	0.0221012004379012	-0
295	1	78	112	0	9	0	122	3.45290313701844	1	0.0575004646800131	11.9351887054744
296	1	52	13	0	8	0	122	0.887853515974712	1	0.0237280806126217	0
297	0	30	149	0	7	0	120	0.834142034000251	1	8.33272146153467e-13	0
298	0	106	49	0	7	0	122	2.76688745303545	0	8.12334194235111e-05	-0
299	0	14	90	0	9	0	122	1.89398138399702	0	0.0142751865741594	-0
300	1	124	14	0	11	0	122	2.88607415900333	1	0.0222068493751467	0
301	0	105	63	1	11	0	122	1.20898928696988	0	0.000902522859859065	-0
302	0	141	81	0	19	0	122	0.915847169992048	0	0.0224756231861518	-0
303	0	47	47	1	26	0	120	0.644907427020371	1	0.0584764559130924	28.1073840325007
304	0	145	139	1	23	0	122	0.904910808021668	0	0.0271364600067233	-56.2147679698076
305	1	49	17	0	30	0	122	0.866861046000849	1	0.0491474171118299	28.1073840336224
306	1	4	40	1	28	0	122	1.46903339703567	1	0.0321497356780746	28.1073840335315
307	0	50	76	1	26	0	120	0.66439727100078	1	0.0438730741483635	28.1073840325007
308	0	129	69	1	24	0	120	0.777998303994536	1	0.0237284273296388	0
309	1	6	126	0	22	0	122	0.792360357998405	1	0.0177375371334552	0
310	1	7	130	0	20	0	120	0.750483490002807	0	0.0567619060139993	-56.2147647015687
311	1	49	1	1	26	0	122	0.68551344901789	1	0.0152181687458522	0
312	1	88	11	0	24	0	122	0.664473102020565	1	0.0671540845335968	28.1073840194343
313	0	143	141	0	22	0	120	1.24331410200102	1	0.0189231532575301	0
314	0	8	127	1	21	0	120	0.726104507979471	1	0.0397030095029378	28.1073835032657
315	1	79	20	0	19	0	122	0.759073270950466	1	0.00427280997120938	0
316	1	135	113	0	17	0	120	0.661722883000039	0	0.043348550258621	-56.2146760716132
317	1	19	15	1	22	0	120	0.905425982025918	0	0.0241645703674269	-0
318	1	132	123	0	28	0	122	0.81847033201484	1	0.0285079773909789	28.1073840335315
319	0	105	36	1	26	0	120	0.710959910007659	1	0.0459169955198806	28.1073840325007
320	1	69	7	1	24	0	122	1.0235695890151	1	0.021470533291293	0
321	0	69	43	1	23	0	120	0.658971138997003	1	0.000445683292655032	0
322	0	24	52	0	21	0	122	0.718632807955146	0	0.0630445098994017	-56.2147670065315
323	0	34	73	1	26	0	120	0.615369566017762	1	0.0415858528718132	28.1073840325007
324	1	143	66	1	24	0	122	1.52553815598367	1	0.0379875016603538	28.1073840194343
325	0	59	5	1	23	0	122	1.61319088697201	0	0.0203229429264687	-0
326	1	49	68	1	27	0	122	1.06586388597498	1	0.0139702877217787	0
327	0	103	51	0	26	0	120	1.18059560499387	1	0.0445093169219059	28.1073840325007
328	0	30	84	1	25	0	120	0.738021199998911	1	0.0392652787480475	28.1073840295903
329	0	33	10	1	23	0	120	0.826997527037747	1	0.0931718265469071	28.1073839849038
330	1	19	56	1	22	0	122	0.709466082043946	1	0.0223779654788337	0
331	0	68	47	0	20	0	120	1.99110716796713	1	0.0191484115919462	0
332	1	18	142	0	19	0	122	1.42920483404305	1	0.0212875430356993	0
333	0	40	95	0	18	0	120	1.96259809099138	1	0.0425029409286501	28.1073683616341
334	0	124	126	1	16	0	120	0.696856099006254	1	0.0163452121575233	0
335	1	92	132	1	15	0	122	0.715262063022237	1	0.0229019383948431	0
336	0	89	61	0	14	0	120	0.860061134037096	1	0.0187173730003102	0
337	1	48	43	0	12	0	120	1.46291517902864	0	0.00021945871334487	-0
338	0	31	58	1	16	0	120	2.92262412101263	1	0.0204726293657632	0
339	0	59	25	0	15	0	122	1.29130376200192	0	0.0775461879484017	-56.2140349236264
340	0	72	113	1	19	0	120	1.26796351000667	1	0.0463416441449553	28.1073788309186
341	0	21	71	1	17	0	120	0.758636744052637	1	0.111572256648234	28.1073380358066
342	1	26	71	0	16	0	120	0.756972510949709	0	0.0224027100886195	-0
343	1	105	69	1	20	0	122	2.11790512001608	1	0.0155295424809132	0
344	0	8	78	1	19	0	120	1.46075654402375	1	0.0659565372169233	28.1073788309186
345	0	96	35	1	18	0	120	0.788671654008795	1	0.0211916119002242	0
346	0	117	138	1	16	0	120	1.34866451699054	1	0.0280974465605294	28.107252487492
347	0	4	142	0	15	0	120	4.10101349500474	1	0.0391729533339575	28.1070174618132
348	0	33	7	0	14	0	120	3.69451201101765	1	0.0978448650233172	28.1063886459985
349	0	17	3	0	13	0	122	0.975641636003274	0	0.00025202945907258	-0
350	0	7	30	1	16	0	120	0.940914714010432	1	0.0292735588669506	28.107252487492
351	1	79	107	1	15	0	122	0.836643400019966	1	0.0234703568659205	0
352	1	109	138	1	14	0	120	1.36902942799497	0	0.0197153117004389	-0
353	0	79	82	0	17	0	120	1.33388993504923	1	0.0265586380734641	28.1073380358066
354	1	52	18	0	16	0	122	5.28667468298227	1	0.0254387822389698	28.107252487492
355	0	39	87	0	15	0	120	1.40857422200497	1	0.046275935158016	28.1070174618132
356	1	87	86	0	14	0	122	0.822566916001961	1	0.0551796066464449	28.1063886459985
357	1	121	107	1	13	0	120	0.833630550012458	0	0.0233113400595471	-0
358	0	144	39	1	16	0	120	1.00476906396216	1	0.0544917502176226	28.107252487492
359	0	102	112	0	15	0	122	5.16279370104894	0	0.0785189837001492	-56.2140349236264
360	1	89	27	0	18	0	122	1.01770441100234	1	0.0574395387898054	28.1073683616341
361	1	41	62	1	17	0	120	0.853560191986617	0	0.025014897669675	-56.2146760716132
362	0	146	45	0	20	0	120	3.33761152101215	1	0.0289877578327817	28.1073823507844
363	0	26	46	0	19	0	120	1.84900030400604	1	0.0436372230902822	28.1073788309186
364	0	147	51	0	18	0	120	1.74895116197877	1	0.0586953296161822	28.1073683616341
365	1	146	76	0	17	0	120	0.931711249984801	0	0.032687436085708	-56.2146760716132
366	0	76	134	0	20	0	120	1.15686775103677	1	0.0267028038466047	28.1073823507844
367	0	13	15	0	19	0	122	2.06644403096288	0	0.0415335618267694	-56.2147576618372
368	1	95	60	0	22	0	120	0.925062214024365	0	0.0330745011780227	-56.2147677415851
369	0	85	44	0	25	0	120	0.693123981996905	1	0.0272313901286873	28.1073840295903
370	0	8	107	0	24	0	120	0.79058657202404	1	0.0755411932042492	28.1073840194343
371	0	140	9	0	23	0	120	1.27599537902279	1	0.027673986708073	28.1073839849038
372	0	98	2	1	22	0	122	1.04585824697278	0	0.0551053129325301	-56.2147677415851
373	0	38	95	1	25	0	120	0.785297428024933	1	0.059168384780356	28.1073840295903
374	0	119	48	1	24	0	120	0.678308927046601	1	0.0350456410244444	28.1073840194343
375	0	6	45	0	23	0	120	0.824264427996241	1	0.00312755923429693	0
376	0	55	55	0	22	0	120	1.03732335299719	1	0.0120808114564517	0
377	1	67	44	1	21	0	122	0.770169797993731	1	0.015580079047727	0
378	1	35	5	1	20	0	122	1.13665102102095	1	0.0479384483776717	28.1073823507844
379	1	29	70	1	19	0	122	5.30494458199246	1	0.0295663184509297	28.1073788309186
380	0	134	39	0	19	0	120	0.793234771990683	1	0.0528307393458639	28.1073788309186
381	1	60	21	1	18	0	122	0.766285631980281	1	0.0271823702115194	28.1073683616341
382	1	94	6	0	17	0	122	1.93277151201619	1	0.039324495339546	28.1073380358066
383	0	5	69	0	16	0	122	1.02847531501902	0	0.0466622863492222	-56.214504974984
384	0	69	64	0	19	0	120	0.60164883203106	1	0.000994468254729422	0
385	0	105	57	1	18	0	122	2.43023370101582	0	0.0646896908344539	-56.2147367232683
386	1	118	131	1	20	0	120	0.690431014983915	0	0.0450497766743972	-56.2147647015687
387	1	42	54	1	23	0	122	0.764815215021372	1	1.43763382926619e-06	0
388	0	37	37	1	22	0	122	2.56279600301059	0	0.0288315177439174	-56.2147677415851
389	1	104	16	0	24	0	122	0.953176126990002	1	0.0130988039021799	0
390	0	3	97	0	24	0	122	1.78371419198811	0	0.0713260876877898	-56.2147680388686
391	1	103	2	0	26	0	122	0.870612428989261	1	0.0482749338173252	28.1073840325007
392	0	68	115	1	25	0	120	1.10484763700515	1	0.053540379225337	28.1073840295903
393	0	47	51	1	24	0	120	0.818456551991403	1	0.0289872787947386	28.1073840194343
394	1	141	126	1	24	0	122	1.19937344896607	1	0.0428421182398087	28.1073840194343
395	1	62	121	0	23	0	122	2.05161754100118	1	0.00185356504121225	0
396	0	129	16	1	22	0	120	0.783040686976165	1	0.0379820042291236	28.1073838707925
397	0	135	150	1	21	0	122	2.22167076496407	0	0.0439462308126028	-56.2147670065315
398	1	100	62	0	24	0	122	4.29722447600216	1	0.0445347639705023	28.1073840194343
399	1	51	48	1	23	0	120	2.61021867202362	0	0.000397152417974572	-0
400	0	112	68	1	25	0	120	2.06448455096688	1	0.0272154000374082	28.1073840295903
401	0	47	41	1	25	0	120	0.597031346987933	1	0.0456258888246841	27.2726666666666
402	1	146	84	1	22	0	122	2.87193179299356	1	0.0374393193317282	27.2726666666666
403	1	149	77	1	20	0	120	0.826076913974248	0	0.0170659214969888	-0
404	0	95	67	1	28	0	120	0.839858489984181	1	0.0633378711424029	27.2726666666666
405	1	92	18	1	25	0	122	0.738951367035042	1	0.0652750236726184	27.2726666666666
406	0	119	118	1	23	0	120	0.801449565973599	1	0.0499473935992757	27.2726666666666
407	1	93	27	0	21	0	120	0.736049064958934	0	0.0260264037978544	-54.5453333333333
408	1	143	94	1	28	0	122	0.767027044028509	1	0.0830180914606338	27.2726666666666
409	1	28	94	1	25	0	120	1.76589159999276	0	0.0957170291017468	-54.5453333333333
410	0	150	34	1	32	0	120	0.757857504009735	1	0.0701239915752863	27.2726666666666
411	0	125	102	1	30	0	120	0.835093860980123	1	0.0146824241355628	0
412	1	16	107	1	28	0	120	1.03921839396935	0	0.0889025145885169	-54.5453333333333
413	0	28	87	1	34	0	120	2.15385358099593	1	0.0665790452500009	27.2726666666666
414	1	12	18	0	32	0	122	0.825631040032022	1	0.031368652646482	27.2726666666666
415	1	130	91	1	30	0	122	1.52658647100907	1	0.0388963946554836	27.2726666666666
416	1	101	34	1	28	0	120	0.909790786972735	0	0.0481426823243099	-54.5453333333333
417	0	43	73	1	34	0	120	0.734688588010613	1	0.0726595272978866	27.2726666666666
418	1	42	75	1	32	0	120	1.39898025803268	0	0.0494652220423544	-54.5453333333333
419	1	136	117	1	37	0	120	1.47545281797647	0	0.0517004724509563	-54.5453333333333
420	0	89	39	0	42	0	120	0.965170724026393	1	0.0502487107052816	27.2726666666666
421	0	26	48	0	41	0	122	1.83662620797986	0	0.0947221824062615	-54.5453333333333
422	1	138	137	1	46	0	122	1.4000003740075	1	0.0517629124525487	27.2726666666666
423	1	62	104	1	44	0	122	0.676706776022911	1	0.0494138388951305	27.2726666666666
424	0	97	73	0	43	0	120	0.815386817033868	1	0.0444157316775949	27.2726666666666
425	1	46	143	1	41	0	122	1.39588885998819	1	0.0493667416106293	27.2726666666666
426	1	102	98	0	40	0	122	2.65780848101713	1	0.0523811942847182	27.2726666666666
427	0	105	9	1	38	0	120	0.740817171987146	1	0.0815846505910789	27.2726666666666
428	0	21	103	0	37	0	120	0.97177877498325	1	0.0713054018784099	27.2726666666666
429	1	141	55	1	35	0	122	0.889972987002693	1	0.0433450519053389	27.2726666666666
430	1	72	55	0	34	0	120	0.842513933952432	0	0.0188063059128064	-0
431	0	74	23	1	38	0	120	0.744099174044095	1	0.0636658326985063	27.2726666666666
432	0	109	35	1	36	0	120	0.701611152035184	1	0.0402516407567054	27.2726666666666
433	0	37	81	1	35	0	120	0.736220630991738	1	0.038758565217295	27.2726666666666
434	1	53	63	0	34	0	122	1.37499960401328	1	0.0686633074278623	27.2726666666666
435	1	106	25	1	32	0	122	1.8456284480053	1	0.0238618701313231	0
436	1	82	135	1	31	0	122	0.768730807991233	1	0.0412646261911427	27.2726666666666
437	0	77	43	0	30	0	120	0.615563470986672	1	0.0877048097706206	27.2726666666666
438	1	18	137	1	28	0	122	2.00457484601066	1	0.0101031585901946	0
439	1	108	97	1	27	0	122	1.69032885599881	1	0.0265239455989175	27.2726666666666
440	1	17	73	0	26	0	122	0.939706016040873	1	0.0142674034643759	0
441	1	104	57	1	24	0	122	0.755669466976542	1	0.0220671505560373	0
442	0	41	38	1	23	0	120	1.05854461702984	1	0.0355832772076844	27.2726666666666
443	1	76	147	0	22	0	120	0.710267963004299	0	1.01415643544165e-13	-0
444	1	91	107	1	25	0	122	0.743342423986178	1	0.0625030095049527	27.2726666666666
445	0	91	52	1	24	0	120	1.25438543100609	1	0.0300124098237159	27.2726666666666
446	0	63	102	0	23	0	120	2.20931251498405	1	0.00427549082847147	0
447	1	1	130	0	22	0	120	0.919281502021477	0	0.0203294005784957	-0
448	1	60	39	0	25	0	122	1.11887737800134	1	0.0298902104508777	27.2726666666666
449	1	117	87	1	24	0	120	1.12048071203753	0	0.0140779347376953	-0
450	0	98	13	0	28	0	120	1.88906647899421	1	0.0859518717725276	27.2726666666666
451	0	128	24	0	27	0	120	2.68111133703496	1	0.0189072247751289	0
452	1	85	150	1	25	0	122	0.70794997503981	1	0.0569169149295562	27.2726666666666
453	1	90	135	0	24	0	122	0.708951938024256	1	0.0744946372435523	27.2726666666666
454	1	128	48	1	23	0	122	0.750507485994603	1	0.023132915337244	0
455	1	123	11	1	22	0	120	1.10014619701542	0	0.0314381485093711	-54.5453333333333
456	0	79	97	1	25	0	120	0.927199517958798	1	0.0172054894913698	0
457	1	68	26	1	24	0	122	0.911155470996164	1	7.99784548634047e-05	0
458	1	136	124	0	23	0	122	2.06453317397973	1	0.0939849124482677	27.2726666666666
459	0	22	134	1	22	0	120	1.02706932404544	1	0.0940807097003349	27.2726666666666
460	1	32	76	1	21	0	122	2.64601863798453	1	0.0627200511817193	27.2726666666666
461	1	59	56	1	20	0	120	4.38516376999905	0	0.0754529845585096	-54.5453333333333
462	0	78	120	0	23	0	120	0.960343218001071	1	0.0684611241944218	27.2726666666666
463	1	54	117	1	22	0	122	2.90192287496757	1	0.0327301042959956	27.2726666666666
464	0	34	57	0	21	0	120	0.752842708025128	1	0.0450676198949444	27.2726666666666
465	0	94	94	1	20	0	122	2.86325846798718	0	0.0333560708391231	-54.5453333333333
466	0	4	120	0	23	0	120	1.09860417601885	1	0.00335556419171663	0
467	1	64	141	1	22	0	122	1.31484972499311	1	0.0231298453338796	0
468	1	29	23	0	21	0	122	1.70072186499601	1	0.0520299265182707	27.2726666666666
469	0	147	96	0	20	0	120	4.26129838498309	1	0.0342027255450205	27.2726666666666
470	1	14	95	0	19	0	122	3.83965061901836	1	0.0531171923966038	27.2726666666666
471	0	100	149	0	18	0	122	0.867572867020499	0	0.0216654769597336	-0
472	0	43	8	1	21	0	122	3.28589089598972	0	0.0280935978727043	-54.5453333333333
473	1	25	120	0	24	0	122	2.78366077097598	1	0.0231597601937811	0
474	1	108	118	0	23	0	122	1.30163306603208	1	0.0302283879678571	27.2726666666666
475	0	125	59	0	22	0	120	1.8871051070164	1	0.00753808039495524	0
476	1	51	80	0	21	0	122	2.00945037597558	1	0.0442237287214246	27.2726666666666
477	0	35	148	0	20	0	120	5.73320542398142	1	0.000539199929016016	0
478	0	23	122	1	19	0	120	0.93415065901354	1	0.0428549296694836	27.2726666666666
479	0	82	19	0	18	0	120	4.34196647902718	1	0.0269302637763197	27.2726666666666
480	1	48	67	1	18	0	120	4.16415558301378	0	0.0139794202317248	-0
481	0	52	38	0	20	0	120	1.68357284902595	1	0.048491597416675	27.2726666666666
482	0	132	73	0	19	0	122	1.02966913097771	0	0.0929964616097471	-54.5453333333333
483	0	82	27	0	22	0	120	1.00952970300568	1	0.0465229611439321	27.2726666666666
484	1	116	121	0	21	0	122	1.83965680905385	1	0.0716423374724516	27.2726666666666
485	0	62	113	0	20	0	120	1.09837600501487	1	0.0127341037460086	0
486	0	134	39	0	19	0	120	0.988484456960578	1	0.0925519982784115	27.2726666666666
487	0	102	144	1	18	0	120	0.977323512022849	1	0.0375045657063554	27.2726666666666
488	1	9	63	1	18	0	122	6.4476743999985	1	0.0371191100660586	27.2726666666666
489	1	22	146	0	17	0	120	0.96322718000738	0	0.0474002717646192	-54.5453333333333
490	1	103	14	0	19	0	122	1.92243354005041	1	0.00194105405288819	0
491	1	59	77	1	19	0	122	1.722220859956	1	0.0240635602084149	0
492	1	85	124	0	18	0	122	3.17155684501631	1	0.0407195393766346	27.2726666666666
493	0	37	40	0	17	0	120	0.849285034986679	1	0.00285287911289952	0
494	0	31	145	1	16	0	122	2.75731618300779	0	0.0554844743477357	-54.5453333333333
495	1	90	150	1	18	0	122	2.82048588700127	1	0.0555472383746353	27.2726666666666
496	0	81	36	1	18	0	120	0.99213592405431	1	0.0186076634561366	0
497	0	24	70	1	17	0	122	2.94187599502038	0	0.0426169509599845	-54.5453333333333
498	1	6	122	0	19	0	122	0.973792787001003	1	0.0436368982899011	27.2726666666666
499	0	89	131	1	18	0	120	0.788133494032081	1	0.088920331494676	27.2726666666666
500	0	113	83	0	18	0	120	4.55448071699357	1	0.0512380058098967	27.2726666666666
