Trial	Gender_Face1	Face1_nb	Face2_nb	Right_left_flip	Nb_Bubbles	Overlap_Target	Response	RT	Accuracy	Simi2Target	Trial_Reward
1	1	69	140	0	33	0	122	3.79595952806994	1	0	0
2	0	44	14	0	29	0	120	1.21350879303645	1	0	0
3	0	30	15	0	24	0	120	1.92249198409263	1	0	0
4	1	16	85	0	20	0	122	4.86414724495262	1	0	0
5	0	119	145	1	15	0	120	1.28203193296213	1	0	0
6	1	78	29	0	11	0	122	3.49177482898813	1	0	0
7	0	25	81	1	6	0	120	3.37453945993911	1	0	0
8	1	105	8	0	2	0	122	6.12209316901863	1	0	0
9	1	57	56	0	1	0	120	3.15302099299151	0	0	0
10	0	71	75	1	11	0	122	2.3120811820263	0	0	0
11	0	51	149	1	24	0	120	3.87153540691361	1	0	0
12	1	13	42	1	20	0	122	1.20960413699504	1	0	0
13	1	69	130	0	16	0	122	3.26195933390409	1	0	0
14	0	10	8	0	12	0	120	1.07958903897088	1	0	0
15	0	26	34	1	9	0	120	1.57694208901376	1	0	0
16	1	45	81	0	5	0	122	2.20598310604692	1	0	0
17	1	112	60	1	1	0	122	2.29108463111334	1	0	0
18	1	51	66	1	1	0	122	1.65132797893602	1	0	0
19	0	142	2	0	1	0	122	1.21444164402783	0	0	0
20	1	34	29	0	5	0	120	1.9059563720366	0	0	0
21	1	6	128	0	15	0	120	2.96198085497599	0	0	0
22	1	71	103	0	25	0	122	0.952561468933709	1	0	0
23	0	132	10	1	22	0	120	2.45510622800793	1	0	0
24	0	30	33	0	18	0	120	2.9049005539855	1	0	0
25	1	143	38	0	15	0	122	0.848982089897618	1	0	0
26	1	144	27	0	12	0	122	1.97899578197394	1	0	0
27	1	95	91	1	9	0	122	0.897188720991835	1	0	0
28	1	5	18	0	6	0	122	2.20955008501187	1	0	0
29	1	72	61	1	3	0	120	1.21385735401418	0	0	0
30	0	33	59	1	12	0	120	1.09755479707383	1	0	0
31	0	141	34	0	9	0	120	4.65846414107364	1	0	0
32	1	43	65	0	6	0	122	1.76462373603135	1	0	0
33	0	48	84	1	4	0	120	1.26537935901433	1	0	0
34	1	37	106	0	1	0	120	1.0599372650031	0	0	0
35	1	91	5	1	9	0	122	1.94286065502092	1	0	0
36	1	105	80	0	6	0	122	3.6616865779506	1	0	0
37	0	52	147	1	4	0	120	0.75175285001751	1	0	0
38	1	70	80	1	1	0	122	2.07093852106482	1	0	0
39	1	106	25	0	1	0	122	3.26387620694004	1	0	0
40	1	76	71	0	1	0	120	0.794084238936193	0	0	0
41	1	32	68	0	3	0	120	0.957858229987323	0	0	0
42	0	7	8	1	11	0	122	1.65281235298607	0	0	0
43	1	10	47	1	18	0	120	2.46386803104542	0	0	0
44	1	95	136	0	26	0	122	2.61741596495267	1	0	0
45	1	8	44	1	24	0	122	1.56395421898924	1	0	0
46	1	97	88	1	21	0	122	1.58757121302187	1	0	0
47	1	92	77	0	19	0	120	0.975848942995071	0	0	0
48	1	90	1	1	26	0	122	2.98916684405413	1	0	0
49	1	139	32	1	24	0	120	1.15353425301146	0	0	0
50	1	82	55	1	31	0	122	0.952811387018301	1	0	0
51	0	87	114	1	28	0	120	1.7184110529488	1	0	0
52	0	125	26	1	26	0	120	1.00667526794132	1	0	0
53	1	61	35	0	24	0	122	1.50002735806629	1	0	0
54	0	60	69	0	22	0	120	1.70814267499372	1	0	0
55	1	8	52	1	20	0	120	31.4609399619512	0	0	0
56	0	116	81	1	26	0	122	0.975403603981249	0	0	0
57	0	140	9	0	32	0	120	0.813093647942878	1	0	0
58	0	4	102	1	30	0	122	2.26561689097434	0	0	0
59	0	59	57	0	37	0	120	0.753026974969544	1	0	0
60	1	34	53	0	35	0	122	0.738573573064059	1	0	0
61	0	133	72	0	33	0	120	0.761845519999042	1	0	0
62	1	5	74	1	30	0	120	1.98327744205017	0	0	0
63	1	120	20	1	37	0	122	1.02810158103239	1	0	0
64	1	117	71	0	35	0	120	1.33528390398715	0	0	0
65	0	91	141	1	41	0	120	2.22160719998647	1	0	0
66	0	119	38	1	39	0	120	1.5855185239343	1	0	0
67	0	61	132	1	37	0	120	3.15106943994761	1	0	0
68	0	51	26	0	35	0	120	0.996851411997341	1	0	0
69	0	76	4	0	33	0	120	5.52127449191175	1	0	0
70	0	132	29	1	31	0	120	1.12093479197938	1	0	0
71	0	91	72	1	29	0	122	2.38443467800971	0	0	0
72	0	19	1	0	35	0	120	1.43712805793621	1	0	0
73	1	24	108	0	33	0	122	0.912065593060106	1	0	0
74	0	72	139	1	31	0	120	1.56818078004289	1	0	0
75	1	33	29	1	29	0	122	1.59828148002271	1	0	0
76	0	119	11	0	28	0	120	0.898923605913296	1	0	0
77	1	10	34	0	26	0	122	1.84301766904537	1	0	0
78	1	11	52	0	24	0	122	1.07785295194481	1	0	0
79	1	72	104	1	23	0	120	0.999208143912256	0	0	0
80	1	125	2	0	28	0	120	3.94848823698703	0	0	0
81	1	66	139	0	32	0	120	0.779500939068384	0	0	0
82	0	148	84	0	37	0	122	2.59226293093525	0	0	0
83	0	6	78	1	42	0	120	0.805184382945299	1	0	0
84	1	73	115	1	41	0	122	1.51329014298972	1	0	0
85	0	27	42	1	39	0	120	0.84169446292799	1	0	0
86	0	1	20	0	37	0	120	1.71716763300356	1	0	0
87	0	3	138	1	36	0	122	2.10097713000141	0	0	0
88	1	80	109	0	40	0	120	1.05280709301587	0	0	0
89	1	5	101	0	45	0	122	1.07913939794526	1	0	0
90	0	43	23	0	44	0	120	0.953432835056446	1	0	0
91	0	130	50	1	42	0	120	1.32737504399847	1	0	0
92	1	109	67	1	41	0	120	1.38282621093094	0	0	0
93	1	129	25	0	45	0	122	0.804519567056559	1	0	0
94	0	149	4	0	44	0	120	0.91270227311179	1	0	0
95	1	97	144	1	42	0	120	2.31983049295377	0	0	0
96	1	142	123	0	47	0	122	1.08000515704043	1	0	0
97	1	68	18	1	45	0	122	0.87346139899455	1	0	0
98	1	62	133	1	44	0	122	1.58692826901097	1	0	0
99	0	125	131	0	42	0	120	1.99176780902781	1	0	0
100	0	89	92	1	41	0	120	0.94747367000673	1	0	0
101	0	43	81	0	39	0	120	2.42402606201358	1	0	0
102	1	56	89	0	36	0	122	2.37806938006543	1	0	0
103	0	79	90	0	34	0	120	0.998835842940025	1	0	0
104	1	6	96	0	31	0	122	1.33933308103587	1	0	0
105	0	52	1	0	29	0	120	0.850925031933002	1	0	0
106	0	115	49	0	26	0	120	1.58846918900963	1	0	0
107	0	12	116	0	24	0	120	0.930296911043115	1	0	0
108	0	7	40	1	21	0	122	2.20142854808364	0	0	0
109	0	100	26	1	29	0	120	0.917501221993007	1	0	0
110	0	10	144	0	27	0	120	2.49343618401326	1	0	0
111	1	91	23	0	24	0	122	0.958026394946501	1	0	0
112	1	138	72	0	22	0	120	1.82033867202699	0	0	0
113	0	58	42	0	29	0	120	1.34402709198184	1	0	0
114	0	72	111	1	27	0	120	0.71814654499758	1	0	0
115	1	60	67	1	25	0	122	0.733794710016809	1	0	0
116	0	68	102	1	23	0	120	0.693683478981256	1	0	0
117	1	135	15	0	21	0	122	1.88599487289321	1	0	0
118	1	109	77	1	19	0	120	1.92621817998588	0	0	0
119	1	135	5	1	24	0	122	1.59051080199424	1	0	0
120	0	103	97	1	23	0	120	7.48378703300841	1	0	0
121	1	3	47	0	21	0	120	6.58871077699587	0	0	0
122	1	93	114	1	26	0	122	1.51336195704062	1	0	0
123	1	132	121	0	25	0	122	4.83290073892567	1	0	0
124	1	10	47	0	23	0	122	7.46881786396261	1	0	0
125	0	29	84	0	21	0	120	17.1265015900135	1	0	0
126	0	70	38	1	19	0	122	0.797946028062142	0	0	0
127	1	8	150	1	25	0	122	1.28204163804185	1	0	0
128	0	146	11	0	23	0	122	2.19670597801451	0	0	0
129	0	62	50	0	28	0	120	0.993015410960652	1	0	0
130	0	38	26	0	26	0	120	1.9340124099981	1	0	0
131	0	130	61	1	25	0	122	1.18180287908763	0	0	0
132	0	64	137	0	30	0	120	1.17903014598414	1	0	0
133	0	9	9	1	28	0	120	1.528794851969	1	0	0
134	1	59	76	1	27	0	122	3.43126648897305	1	0	0
135	1	128	53	1	25	0	122	2.65064394799992	1	0	0
136	1	72	28	0	24	0	120	3.517995842034	0	0	0
137	0	27	116	0	28	0	122	0.772842400008813	0	0	0
138	0	54	1	1	32	0	120	1.75552680599503	1	0	0
139	1	26	119	0	31	0	122	1.19346440199297	1	0	0
140	0	70	82	0	30	0	120	4.73510752303991	1	0	0
141	1	103	137	0	28	0	122	5.43756810098421	1	0	0
142	0	97	106	1	27	0	120	0.817158058052883	1	0	0
143	1	38	83	0	25	0	122	1.37242183508351	1	0	0
144	1	116	107	0	24	0	120	1.25010043405928	0	0	0
145	1	16	11	1	28	0	120	1.61281520500779	0	0	0
146	1	77	143	1	32	0	122	0.760864803916775	1	0	0
147	0	96	97	1	31	0	120	0.990344693069346	1	0	0
148	1	47	142	0	29	0	122	0.906863129930571	1	0	0
149	0	76	110	0	28	0	120	2.5639571499778	1	0	0
150	0	134	58	1	27	0	120	8.66533791495021	1	0	0
151	1	19	29	1	25	0	122	1.58833105303347	1	0	0
152	1	61	33	1	24	0	120	0.881767841987312	0	0	0
153	0	147	99	0	28	0	120	1.05054326402023	1	0	0
154	1	122	137	0	27	0	122	0.997318616020493	1	0	0
155	1	69	133	1	25	0	120	2.76190576900262	0	0	0
156	1	102	16	0	29	0	122	0.8637910959078	1	0	0
157	0	92	109	1	28	0	122	0.785936952102929	0	0	0
158	1	40	63	0	31	0	120	0.927387899020687	0	0	0
159	0	73	143	0	35	0	122	0.76672078401316	0	0	0
160	1	67	113	0	38	0	120	5.54057192604523	0	0	0
161	1	12	83	1	42	0	122	4.57139076991007	1	0	0
162	1	69	121	0	41	0	120	2.43241669901181	0	0	0
163	0	111	116	1	44	0	122	1.15572229796089	0	0	0
164	1	35	103	1	48	0	122	1.35481361509301	1	0	0
165	1	37	149	1	47	0	120	1.04026330891065	0	0	0
166	1	146	52	1	50	0	120	0.851226557977498	0	0	0
167	0	91	126	1	54	0	120	0.782051043002866	1	0	0
168	1	87	51	1	52	0	120	1.00346182100475	0	0	0
169	0	106	3	1	56	0	120	0.67126656207256	1	0	0
170	1	2	140	0	55	0	120	1.54556262097321	0	0	0
171	1	54	41	1	58	0	122	0.655231341952458	1	0	0
172	1	65	83	1	57	0	122	1.02702148794197	1	0	0
173	0	30	5	0	56	0	120	0.590230791014619	1	0	0
174	0	137	19	0	55	0	120	1.0919719079975	1	0	0
175	0	27	30	0	54	0	120	1.21246829302981	1	0	0
176	0	143	106	0	53	0	120	0.728124212939292	1	0	0
177	0	48	68	1	52	0	120	0.719332458917052	1	0	0
178	0	109	34	1	51	0	120	0.927936451043934	1	0	0
179	1	126	108	1	50	0	122	0.767783810035326	1	0	0
180	0	13	105	0	49	0	120	1.38090165099129	1	0	0
181	0	19	9	0	48	0	120	0.795115167042241	1	0	0
182	0	143	84	0	47	0	122	1.90362799691502	0	0	0
183	0	110	54	1	49	0	120	1.35161914199125	1	0	0
184	0	45	101	0	48	0	120	0.725978103000671	1	0	0
185	0	143	137	1	48	0	122	1.06932365894318	0	0	0
186	1	33	13	0	50	0	122	0.751552287023515	1	0	0
187	1	146	54	1	49	0	120	2.45247487304732	0	0	0
188	0	125	122	0	52	0	122	0.919776772963814	0	0	0
189	1	4	50	1	55	0	122	1.18311103095766	1	0	0
190	1	122	56	0	54	0	122	1.1407020939514	1	0	0
191	1	54	36	0	53	0	122	1.03554782702122	1	0	0
192	0	91	40	1	52	0	120	2.0787605579244	1	0	0
193	0	127	129	0	51	0	120	0.847304060007446	1	0	0
194	1	85	88	1	50	0	122	1.05930254899431	1	0	0
195	0	12	108	0	49	0	120	0.716820145957172	1	0	0
196	0	61	80	0	49	0	122	2.9645665420685	0	0	0
197	1	146	95	1	51	0	120	0.747082742978819	0	0	0
198	0	136	129	0	54	0	120	2.44918803300243	1	0	0
199	0	146	119	0	53	0	120	0.980185479973443	1	0	0
200	0	59	108	0	52	0	120	2.05688117397949	1	0	0
201	1	12	86	0	51	0	122	2.04467354796361	1	0	0
202	0	19	128	1	48	0	120	0.878442352986895	1	0	0
203	0	59	150	0	45	0	120	0.725738713052124	1	0	0
204	1	118	110	0	42	0	122	0.964428356965072	1	0	0
205	0	22	65	0	40	0	120	1.01005529402755	1	0	0
206	0	55	1	1	37	0	122	1.02282907499466	0	0	0
207	1	128	44	1	45	0	122	1.56988121103495	1	0	0
208	0	71	28	0	43	0	122	1.78386739699636	0	0	0
209	1	3	126	0	51	0	122	1.67643367894925	1	0	0
210	1	109	60	1	49	0	120	5.20644872402772	0	0	0
211	0	38	143	0	56	0	120	3.67544695700053	1	0	0
212	0	4	116	0	54	0	122	2.04342141503002	0	0	0
213	0	90	64	0	60	0	120	0.910354187944904	1	0	0
214	0	76	66	1	58	0	120	1.06302823801525	1	0	0
215	1	88	92	1	56	0	122	1.56866890995298	1	0	0
216	0	134	40	1	54	0	122	8.03899635991547	0	0	0
217	0	86	122	0	60	0	120	2.6656655339757	1	0	0
218	0	147	131	1	58	0	120	6.80402511602733	1	0	0
219	1	46	48	1	56	0	122	2.44083562598098	1	0	0
220	1	112	105	1	54	0	120	3.86690214299597	0	0	0
221	1	122	55	1	60	0	122	1.67663358605932	1	0	0
222	1	25	145	1	58	0	122	1.23915400193073	1	0	0
223	1	49	64	0	56	0	122	2.60899093793705	1	0	0
224	1	146	52	0	54	0	120	1.70121075795032	0	0	0
225	1	63	136	0	60	0	122	1.10961316095199	1	0	0
226	1	26	67	0	58	0	122	3.13409768801648	1	0	0
227	1	143	83	1	57	0	122	3.79676581500098	1	0	0
228	1	83	135	1	55	0	120	3.96113943494856	0	0	0
229	1	51	77	0	60	0	122	0.886647982988507	1	0	0
230	0	41	91	1	59	0	120	1.32097630703356	1	0	0
231	1	111	100	1	57	0	122	1.13619476906024	1	0	0
232	0	88	75	0	55	0	120	5.09562737902161	1	0	0
233	1	51	72	0	54	0	122	5.16789882001467	1	0	0
234	0	40	66	1	52	0	120	0.901511477073655	1	0	0
235	0	105	12	1	50	0	120	0.718102195998654	1	0	0
236	1	142	42	1	49	0	120	0.742591269081458	0	0	0
237	0	56	30	1	54	0	122	1.11745033902116	0	0	0
238	0	81	59	0	58	0	120	0.988983834977262	1	0	0
239	0	112	32	1	57	0	120	2.27467815496493	1	0	0
240	0	28	15	0	55	0	122	1.09228463401087	0	0	0
241	1	90	145	1	60	0	122	10.508941464941	1	0	0
242	0	111	55	0	58	0	120	2.22250409598928	1	0	0
243	1	99	68	1	57	0	122	5.92143564403523	1	0	0
244	0	16	141	0	55	0	120	0.904523864970542	1	0	0
245	1	125	137	0	54	0	120	2.69772394490428	0	0	0
246	0	24	110	1	58	0	122	0.85851643094793	0	0	0
247	1	4	54	0	62	0	122	5.99676737806294	1	0	0
248	0	32	28	0	61	0	120	1.52171127405018	1	0	0
249	0	73	98	0	59	0	122	1.76951475802343	0	0	0
250	1	97	14	1	63	0	122	2.33550959092099	1	0	0
251	1	8	103	0	62	0	122	0.878086557961069	1	0	0
252	1	89	88	0	61	0	122	2.11145154898986	1	0	0
253	1	50	21	0	59	0	120	5.26333835395053	0	0	0
254	1	78	42	0	63	0	122	1.17766277492046	1	0	0
255	0	110	138	0	62	0	120	0.822446792968549	1	0	0
256	0	81	104	1	61	0	120	0.641856972011738	1	0	0
257	1	33	125	0	59	0	122	0.805729334009811	1	0	0
258	0	108	25	0	58	0	122	2.32957148505375	0	0	0
259	0	38	137	1	62	0	122	3.32047559693456	0	0	0
260	0	148	77	0	66	0	122	1.02458305994514	0	0	0
261	0	112	43	1	69	0	120	2.62877589906566	1	0	0
262	0	103	4	0	68	0	120	0.976184434024617	1	0	0
263	1	67	46	1	67	0	122	0.853833987959661	1	0	0
264	1	59	50	0	66	0	120	1.07968497404363	0	0	0
265	0	78	83	0	69	0	120	0.80119165009819	1	0	0
266	0	12	30	1	68	0	120	1.89302408299409	1	0	0
267	1	94	113	1	67	0	122	2.54229967098217	1	0	0
268	1	121	58	0	66	0	122	1.06065909808967	1	0	0
269	0	51	45	0	65	0	120	0.551267487928271	1	0	0
270	1	76	124	0	63	0	120	0.885479054995812	0	0	0
271	1	65	16	1	67	0	122	0.87888524797745	1	0	0
272	1	40	74	1	66	0	120	1.11229939805344	0	0	0
273	0	139	97	0	69	0	120	1.90434285008814	1	0	0
274	1	125	84	0	68	0	122	1.99205862497911	1	0	0
275	1	11	22	0	67	0	122	0.804636563058011	1	0	0
276	0	20	77	1	66	0	120	1.74613543692976	1	0	0
277	1	16	144	0	65	0	122	0.952223515021615	1	0	0
278	0	3	52	0	64	0	120	0.623442244948819	1	0	0
279	0	140	4	1	63	0	120	3.43414552707691	1	0	0
280	1	40	3	1	62	0	122	1.18938739295118	1	0	0
281	1	61	104	0	61	0	122	0.698830444016494	1	0	0
282	0	26	32	1	60	0	120	0.779468546970747	1	0	0
283	1	144	67	1	59	0	122	0.73692617600318	1	0	0
284	0	11	85	0	58	0	120	1.57591270108242	1	0	0
285	1	17	70	1	57	0	122	1.18215741903987	1	0	0
286	0	66	94	0	56	0	120	0.69094702298753	1	0	0
287	0	71	50	0	55	0	120	0.691665414022282	1	0	0
288	1	45	48	0	54	0	122	1.29293271200731	1	0	0
289	1	63	124	0	53	0	120	1.10238246503286	0	0	0
290	1	138	11	1	56	0	122	2.03835458296817	1	0	0
291	1	28	105	1	55	0	122	0.865527710993774	1	0	0
292	0	92	24	1	54	0	120	1.19490290200338	1	0	0
293	1	45	146	1	53	0	122	0.760508185019717	1	0	0
294	0	110	141	0	52	0	122	1.19025570398662	0	0	0
295	1	103	145	1	55	0	120	1.77135053090751	0	0	0
296	0	119	64	0	57	0	122	1.07318911200855	0	0	0
297	0	27	52	1	60	0	122	1.13948754000012	0	0	0
298	0	77	95	0	63	0	120	0.825529832043685	1	0	0
299	1	9	11	1	62	0	120	1.62893359200098	0	0	0
300	1	88	144	1	64	0	122	0.656592229031958	1	0	0
301	1	97	11	1	64	0	122	1.48672877496574	1	0	0
302	1	148	38	1	61	0	122	0.854522073990665	1	0	0
303	1	112	117	0	59	0	122	0.663777066976763	1	0	0
304	1	109	106	0	56	0	120	0.783151497947983	0	0	0
305	1	17	114	1	64	0	120	1.19761201005895	0	0	0
306	1	90	27	1	71	0	122	0.722065587993711	1	0	0
307	1	99	80	1	69	0	120	0.76838059106376	0	0	0
308	0	76	52	0	76	0	120	1.09641387802549	1	0	0
309	1	15	42	0	74	0	120	2.90479948697612	0	0	0
310	1	143	18	1	80	0	122	5.20938646199647	1	0	0
311	0	29	144	1	78	0	120	0.692488012020476	1	0	0
312	1	95	71	1	76	0	122	0.774573922972195	1	0	0
313	0	122	90	0	74	0	120	0.921539136092179	1	0	0
314	1	96	7	1	72	0	122	0.644048926071264	1	0	0
315	1	58	54	0	71	0	122	0.830402181018144	1	0	0
316	1	133	122	0	69	0	122	0.841257177991793	1	0	0
317	0	76	130	1	67	0	120	0.644528895034455	1	0	0
318	1	139	91	1	65	0	122	0.823112998041324	1	0	0
319	1	26	109	0	64	0	122	1.54711771197617	1	0	0
320	0	63	3	1	62	0	120	1.28166336496361	1	0	0
321	0	97	49	1	60	0	120	1.20358561095782	1	0	0
322	0	137	134	1	58	0	120	0.607667090953328	1	0	0
323	1	45	60	0	57	0	122	0.763876285986044	1	0	0
324	1	69	146	1	55	0	122	1.44214843399823	1	0	0
325	1	27	6	0	53	0	122	2.32516442192718	1	0	0
326	1	149	80	0	52	0	120	0.588292061001994	0	0	0
327	1	93	18	0	57	0	120	2.46552217390854	0	0	0
328	1	99	41	0	62	0	120	0.740192741970532	0	0	0
329	0	95	35	1	66	0	122	0.954376300098374	0	0	0
330	0	96	94	0	71	0	122	0.985599730047397	0	0	0
331	0	65	94	0	75	0	120	1.25383575097658	1	0	0
332	0	54	24	1	74	0	120	0.704940996947698	1	0	0
333	0	7	27	0	72	0	120	0.729243073030375	1	0	0
334	1	110	41	0	71	0	120	0.936418455909006	0	0	0
335	0	75	122	0	75	0	120	0.64480311202351	1	0	0
336	0	39	71	0	74	0	120	0.802287564962171	1	0	0
337	1	60	139	1	72	0	120	2.71088992001023	0	0	0
338	0	120	24	1	76	0	120	0.998964914004318	1	0	0
339	0	35	141	1	75	0	120	0.763817643048242	1	0	0
340	1	2	131	0	74	0	120	4.18566509697121	0	0	0
341	1	60	19	0	78	0	122	1.11864831903949	1	0	0
342	1	48	49	0	76	0	120	0.958376284921542	0	0	0
343	1	129	66	0	80	0	122	0.82039172493387	1	0	0
344	0	133	76	0	79	0	120	0.60136158100795	1	0	0
345	1	51	128	1	78	0	122	1.89286528294906	1	0	0
346	1	136	140	1	77	0	122	1.56559974001721	1	0	0
347	0	97	84	1	75	0	120	0.667609552969225	1	0	0
348	1	119	13	0	74	0	120	1.34897044906393	0	0	0
349	0	132	12	1	78	0	120	0.739275543950498	1	0	0
350	1	69	108	0	77	0	122	0.786334694945253	1	0	0
351	0	107	84	1	75	0	120	1.28768507903442	1	0	0
352	0	107	130	0	74	0	120	0.727934476104565	1	0	0
353	0	69	49	1	73	0	122	1.03929141792469	0	0	0
354	1	123	45	0	77	0	120	1.6986894159345	0	0	0
355	1	115	133	1	80	0	120	1.33207677095197	0	0	0
356	1	97	103	0	83	0	122	0.739385757944547	1	0	0
357	0	93	90	0	82	0	120	0.441154669970274	1	0	0
358	1	69	118	1	81	0	122	1.22081842401531	1	0	0
359	0	128	137	1	80	0	120	1.00143477902748	1	0	0
360	0	75	138	0	79	0	120	0.940529947984032	1	0	0
361	1	128	139	1	78	0	122	3.86041195003781	1	0	0
362	0	17	17	0	77	0	120	1.11785239598248	1	0	0
363	0	59	59	1	76	0	120	0.807041147956625	1	0	0
364	1	75	130	1	75	0	120	1.36187785794027	0	0	0
365	0	148	4	0	78	0	120	0.696670780074783	1	0	0
366	1	73	61	1	77	0	122	1.256663256092	1	0	0
367	1	78	106	0	76	0	120	1.07560857094359	0	0	0
368	1	30	48	0	79	0	120	1.74148735706694	0	0	0
369	1	59	54	1	82	0	120	0.924322125967592	0	0	0
370	1	139	57	1	85	0	122	1.12343829404563	1	0	0
371	1	2	107	1	84	0	120	2.62751791696064	0	0	0
372	1	22	72	1	87	0	122	1.56767318199854	1	0	0
373	1	49	20	1	86	0	122	1.18188297899906	1	0	0
374	1	12	45	1	85	0	122	1.53848567896057	1	0	0
375	0	134	47	0	84	0	120	1.24160924495663	1	0	0
376	0	122	112	1	83	0	120	0.917187428916804	1	0	0
377	1	28	11	1	82	0	122	0.684781510964967	1	0	0
378	0	146	95	1	81	0	120	0.589985182043165	1	0	0
379	1	125	5	0	80	0	120	1.66713564109523	0	0	0
380	1	104	36	0	83	0	122	0.824788105092011	1	0	0
381	1	133	5	1	82	0	120	1.49588260706514	0	0	0
382	0	85	76	1	85	0	122	0.928125626058318	0	0	0
383	0	61	41	0	88	0	120	0.911705530015752	1	0	0
384	0	136	147	0	87	0	120	1.82407218997832	1	0	0
385	0	110	65	1	86	0	120	0.770726141985506	1	0	0
386	1	150	96	1	85	0	122	1.07378695008811	1	0	0
387	0	54	71	0	84	0	120	1.03531277901493	1	0	0
388	0	132	12	0	83	0	120	0.686048501986079	1	0	0
389	0	19	2	1	82	0	120	1.58281674806494	1	0	0
390	0	72	30	1	81	0	120	2.37235123105347	1	0	0
391	0	47	6	1	81	0	120	0.777132867951877	1	0	0
392	0	82	34	0	80	0	120	0.735327508999035	1	0	0
393	0	44	104	1	79	0	120	1.11103064299095	1	0	0
394	0	13	83	1	78	0	120	0.750611436087638	1	0	0
395	0	25	150	0	77	0	120	0.628614177927375	1	0	0
396	1	63	23	0	77	0	120	0.7999800699763	0	0	0
397	0	73	116	0	79	0	120	0.619812624063343	1	0	0
398	1	111	99	1	78	0	120	0.728140337974764	0	0	0
399	1	25	28	1	80	0	120	0.71102065697778	0	0	0
400	1	24	141	1	83	0	122	0.910962500027381	1	0	0
401	1	27	7	0	82	0	122	1.26212135201786	1	0	0
402	1	77	72	1	79	0	120	0.47045917797368	0	0	0
403	1	50	150	0	87	0	120	2.15099697606638	0	0	0
404	1	142	76	0	95	0	122	0.916156302089803	1	0	0
405	0	130	26	0	92	0	120	0.627227362012491	1	0	0
406	1	123	150	0	90	0	122	0.797753553022631	1	0	0
407	1	54	43	0	88	0	122	0.787465283996426	1	0	0
408	0	105	95	0	86	0	120	1.3691117009148	1	0	0
409	0	18	33	1	84	0	120	2.13405290991068	1	0	0
410	0	127	10	1	82	0	120	0.829337836941704	1	0	0
411	0	4	33	0	80	0	120	0.824119408032857	1	0	0
412	1	22	55	0	78	0	122	1.87595122400671	1	0	0
413	0	21	35	1	76	0	120	4.76526326499879	1	0	0
414	0	22	89	1	74	0	120	1.61912506096996	1	0	0
415	1	107	66	0	72	0	122	0.614484816906042	1	0	0
416	0	115	86	1	70	0	120	0.922940180986188	1	0	0
417	1	66	96	0	68	0	120	2.33018727204762	0	0	0
418	1	93	40	0	74	0	120	1.01724473200738	0	0	0
419	0	118	128	1	80	0	120	1.30138737394009	1	0	0
420	1	74	130	0	78	0	120	1.15768846694846	0	0	0
421	1	118	127	1	83	0	122	0.59605340694543	1	0	0
422	1	111	26	0	81	0	122	1.54463436303195	1	0	0
423	1	133	107	0	80	0	122	3.09605129796546	1	0	0
424	0	36	60	0	78	0	120	0.790854207007214	1	0	0
425	1	139	4	0	76	0	120	4.35763904300984	0	0	0
426	1	104	20	1	81	0	120	3.54838516295422	0	0	0
427	1	145	25	1	86	0	120	5.83478608902078	0	0	0
428	1	72	126	1	91	0	120	1.02130456804298	0	0	0
429	1	83	75	0	96	0	122	2.18518239399418	1	0	0
430	0	68	98	1	94	0	120	0.558131736004725	1	0	0
431	1	123	29	1	93	0	122	1.88503889704589	1	0	0
432	0	98	78	0	92	0	120	0.949779237038456	1	0	0
433	0	68	15	1	90	0	120	1.24432459799573	1	0	0
434	0	43	85	0	89	0	120	0.799266843008809	1	0	0
435	1	103	91	1	87	0	122	0.724380029016174	1	0	0
436	1	11	18	1	86	0	122	2.10764755099081	1	0	0
437	0	145	97	0	84	0	120	1.5398637088947	1	0	0
438	0	87	93	1	83	0	122	2.11498486890923	0	0	0
439	0	134	79	1	87	0	120	0.619744963943958	1	0	0
440	0	27	121	0	86	0	120	2.77503581892233	1	0	0
441	1	74	67	1	84	0	122	0.923309292062186	1	0	0
442	1	116	65	1	83	0	122	1.3794544209959	1	0	0
443	0	30	69	1	82	0	120	0.713310944032855	1	0	0
444	1	35	10	1	81	0	120	0.808709529927	0	0	0
445	1	45	124	0	84	0	122	0.902269859914668	1	0	0
446	1	108	66	0	83	0	120	0.982243894948624	0	0	0
447	0	71	10	1	87	0	120	0.851326936041005	1	0	0
448	0	24	42	1	86	0	120	0.958012175979093	1	0	0
449	1	4	85	1	84	0	122	0.972050230950117	1	0	0
450	0	5	2	0	83	0	120	1.85022202902474	1	0	0
451	0	47	46	0	82	0	120	0.948179229977541	1	0	0
452	0	92	115	0	81	0	120	1.94670732400846	1	0	0
453	0	113	61	0	80	0	120	4.06610380602069	1	0	0
454	1	134	20	1	79	0	120	1.74809235101566	0	0	0
455	1	95	130	0	82	0	122	1.24188427207991	1	0	0
456	1	140	115	1	81	0	120	1.30954180902336	0	0	0
457	1	86	134	1	84	0	122	0.925438419915736	1	0	0
458	0	102	13	0	83	0	120	0.997013177024201	1	0	0
459	0	146	54	0	82	0	120	0.681844647973776	1	0	0
460	1	126	61	0	81	0	122	0.610880646039732	1	0	0
461	0	135	118	1	80	0	120	1.88818223704584	1	0	0
462	0	25	15	1	79	0	122	0.919729566085152	0	0	0
463	0	40	66	1	82	0	120	0.664291867986321	1	0	0
464	1	115	129	1	81	0	120	0.754439109005034	0	0	0
465	1	3	66	0	84	0	122	0.744339176919311	1	0	0
466	0	42	47	0	83	0	120	0.839545708033256	1	0	0
467	1	46	23	0	82	0	122	0.651090583065525	1	0	0
468	1	45	24	1	81	0	122	1.86914986302145	1	0	0
469	0	71	114	0	80	0	120	0.750412118039094	1	0	0
470	1	140	129	0	79	0	122	0.797013479983434	1	0	0
471	0	149	63	0	78	0	120	0.762128144036978	1	0	0
472	0	126	89	1	77	0	120	0.679911877959967	1	0	0
473	1	132	86	1	76	0	122	0.465782521991059	1	0	0
474	0	78	6	0	75	0	120	0.627689960994758	1	0	0
475	0	21	86	1	74	0	120	1.33505723602138	1	0	0
476	0	131	136	0	73	0	120	0.629701888072304	1	0	0
477	1	1	48	1	73	0	122	0.553056054050103	1	0	0
478	1	86	11	1	72	0	120	1.08830985007808	0	0	0
479	1	123	142	0	74	0	122	1.01703950995579	1	0	0
480	1	87	114	1	73	0	120	0.660192537005059	0	0	0
481	1	47	85	0	76	0	122	0.582426233915612	1	0	0
482	1	1	8	0	75	0	120	0.820370618021116	0	0	0
483	1	16	112	1	78	0	120	0.935958617017604	0	0	0
484	1	121	86	0	80	0	122	0.623018217971548	1	0	0
485	1	121	40	0	79	0	120	0.610356871038675	0	0	0
486	1	138	146	1	82	0	122	0.7183485890273	1	0	0
487	1	72	52	1	81	0	120	0.565715592936613	0	0	0
488	1	32	5	0	84	0	122	1.18745648197364	1	0	0
489	0	83	46	0	83	0	120	0.824308405979536	1	0	0
490	0	102	133	1	82	0	122	1.59628017002251	0	0	0
491	1	68	16	0	85	0	122	0.952679935027845	1	0	0
492	1	103	97	0	84	0	122	0.920275470940396	1	0	0
493	0	7	17	0	83	0	120	0.919327181065455	1	0	0
494	0	119	96	1	82	0	120	0.934333091019653	1	0	0
495	1	148	46	1	81	0	120	1.39012662798632	0	0	0
496	0	66	81	0	84	0	120	0.699301703018136	1	0	0
497	0	32	122	1	83	0	122	0.884058616939001	0	0	0
498	1	23	57	1	85	0	122	1.78934206592385	1	0	0
499	1	121	80	1	84	0	120	0.890100775053725	0	0	0
500	1	63	67	1	87	0	122	0.699343392043374	1	0	0
