Trial	Gender_Face1	Face1_nb	Face2_nb	Right_left_flip	Nb_Bubbles	Overlap_Target	Response	RT	Accuracy	Simi2Target	Trial_Reward
1	0	40	74	0	50	0	120	0.899165993999759	1	0	0
2	1	5	136	0	47	0	120	1.4041126760003	0	0	0
3	0	11	50	0	55	0	120	0.691050339999947	1	0	0
4	0	142	109	0	53	0	120	0.788050495999869	1	0	0
5	0	56	121	1	51	0	120	0.649770860999979	1	0	0
6	0	17	32	1	49	0	120	0.942506608999793	1	0	0
7	1	67	107	1	46	0	122	1.17394154399972	1	0	0
8	1	137	78	1	44	0	122	0.613082635999945	1	0	0
9	1	32	78	0	42	0	120	1.28963888600038	0	0	0
10	0	118	41	0	49	0	120	0.580216274999657	1	0	0
11	1	67	34	1	47	0	122	0.754878082000232	1	0	0
12	1	148	45	1	45	0	122	1.29076093100002	1	0	0
13	1	23	71	1	43	0	120	2.30897346699976	0	0	0
14	0	144	7	0	49	0	120	1.47668338799986	1	0	0
15	0	92	86	1	47	0	120	1.96703309400027	1	0	0
16	1	81	77	1	45	0	120	1.20020024600035	0	0	0
17	1	136	135	0	51	0	122	0.620747810000012	1	0	0
18	0	127	8	1	49	0	120	0.713538826999866	1	0	0
19	0	92	120	1	47	0	120	0.739650684000026	1	0	0
20	0	8	97	1	45	0	120	0.994752757000242	1	0	0
21	0	80	14	0	44	0	120	0.601768542999707	1	0	0
22	1	87	30	0	42	0	122	0.943318499999805	1	0	0
23	1	132	36	0	40	0	122	0.93585999600009	1	0	0
24	1	108	97	0	38	0	122	0.896754416000022	1	0	0
25	0	149	75	1	37	0	120	1.70611073999999	1	0	0
26	1	78	131	1	35	0	122	0.923381832999894	1	0	0
27	0	73	70	0	33	0	122	0.979202029000135	0	0	0
28	1	22	22	1	38	0	120	1.08258625100007	0	0	0
29	0	147	82	1	43	0	120	1.14867881700002	1	0	0
30	1	110	77	1	42	0	122	2.26034831100014	1	0	0
31	1	130	66	1	40	0	122	1.5275842230003	1	0	0
32	1	140	4	1	38	0	122	0.897953873000006	1	0	0
33	1	96	138	1	37	0	122	0.650414367999929	1	0	0
34	1	26	73	1	35	0	122	1.32650139199995	1	0	0
35	1	26	72	0	34	0	120	1.53488843900004	0	0	0
36	1	109	145	1	38	0	122	0.687559213999975	1	0	0
37	1	2	96	0	37	0	120	1.27470455599996	0	0	0
38	1	128	150	0	41	0	120	0.909202977999939	0	0	0
39	0	140	136	0	45	0	120	0.926696344999982	1	0	0
40	1	1	129	1	44	0	122	0.823623094000141	1	0	0
41	1	88	85	1	43	0	122	0.820349734000047	1	0	0
42	1	137	78	0	41	0	122	0.696631840999999	1	0	0
43	0	10	143	1	40	0	120	0.794088180000017	1	0	0
44	0	149	55	1	39	0	120	0.920239074000165	1	0	0
45	1	140	79	1	37	0	122	1.56125227400025	1	0	0
46	1	66	58	1	36	0	120	6.7358839210001	0	0	0
47	1	35	132	1	40	0	122	1.07174621299964	1	0	0
48	1	91	122	0	39	0	120	1.81060571699982	0	0	0
49	1	136	118	1	42	0	120	0.86359321000009	0	0	0
50	0	81	55	1	46	0	120	0.994433209000363	1	0	0
51	0	121	6	0	45	0	120	0.673002896999606	1	0	0
52	1	75	56	0	44	0	122	1.65150268400021	1	0	0
53	0	109	10	1	43	0	120	0.583049501999994	1	0	0
54	0	54	47	0	41	0	120	0.645955476999916	1	0	0
55	1	136	116	0	40	0	120	0.730879469000229	0	0	0
56	1	11	87	1	44	0	120	1.12241838199998	0	0	0
57	0	14	26	0	47	0	120	0.924343321999913	1	0	0
58	1	103	28	0	46	0	122	3.19596841600014	1	0	0
59	1	134	146	0	45	0	120	1.52228757500006	0	0	0
60	1	22	1	1	48	0	122	0.699499718999959	1	0	0
61	0	67	58	0	47	0	120	0.765199243000097	1	0	0
62	0	107	93	0	46	0	120	3.53949122799986	1	0	0
63	0	78	14	0	45	0	120	0.691445826999825	1	0	0
64	0	54	147	1	44	0	120	0.9095682760003	1	0	0
65	0	73	148	1	43	0	120	0.774573960999987	1	0	0
66	0	83	146	1	42	0	120	0.821571019999737	1	0	0
67	0	92	113	1	41	0	120	1.08217718200012	1	0	0
68	1	39	150	1	40	0	122	2.55018529900008	1	0	0
69	0	62	60	1	39	0	120	0.66147503800039	1	0	0
70	0	131	69	0	38	0	120	0.600397524000073	1	0	0
71	1	98	69	1	37	0	122	0.871622244000264	1	0	0
72	1	41	26	0	36	0	120	0.601651136999863	0	0	0
73	1	143	108	0	39	0	120	2.57537124400005	0	0	0
74	1	98	19	0	42	0	122	0.549069953999606	1	0	0
75	1	10	37	1	41	0	122	0.893912732999979	1	0	0
76	0	136	149	0	40	0	120	0.863372421999884	1	0	0
77	1	144	64	0	39	0	120	1.41823088299998	0	0	0
78	0	129	103	1	42	0	120	0.695743645000221	1	0	0
79	0	101	73	0	41	0	122	1.61769479099985	0	0	0
80	1	59	76	1	43	0	122	0.710967351000363	1	0	0
81	1	1	99	1	42	0	122	0.720260912999947	1	0	0
82	0	82	127	1	41	0	120	0.728852926999934	1	0	0
83	1	105	96	1	41	0	122	0.640591717000007	1	0	0
84	1	73	10	1	40	0	122	0.757129037000141	1	0	0
85	1	24	81	0	39	0	122	1.23758231600004	1	0	0
86	0	127	53	0	38	0	120	0.640665632000037	1	0	0
87	0	81	29	0	37	0	120	0.629681542000071	1	0	0
88	0	61	58	1	36	0	120	0.697603190999871	1	0	0
89	0	116	72	1	35	0	120	0.547265549000258	1	0	0
90	1	116	73	0	35	0	120	0.764229946000341	0	0	0
91	0	22	84	0	37	0	120	0.71547323599998	1	0	0
92	1	19	57	1	36	0	122	1.39551684300022	1	0	0
93	1	45	48	0	35	0	122	1.34533573699991	1	0	0
94	0	107	14	0	35	0	122	0.666209928000171	0	0	0
95	0	49	78	0	37	0	120	0.949281776000134	1	0	0
96	0	89	78	0	36	0	120	0.700643333999778	1	0	0
97	1	138	64	0	35	0	122	0.751354322000225	1	0	0
98	1	33	11	1	35	0	122	0.839390045000073	1	0	0
99	0	58	7	0	34	0	120	1.61855370900003	1	0	0
100	1	94	40	0	33	0	120	1.239699492	0	0	0
101	0	67	29	0	35	0	120	0.894573795000269	1	0	0
102	1	147	141	0	32	0	120	0.665140212000097	0	0	0
103	0	38	128	1	40	0	120	0.667480416999751	1	0	0
104	1	33	10	0	38	0	120	1.27891821599997	0	0	0
105	0	32	135	1	45	0	120	0.610923552999793	1	0	0
106	0	72	72	0	43	0	120	0.583570628999951	1	0	0
107	1	85	99	0	41	0	122	5.36542158999964	1	0	0
108	1	125	79	1	39	0	122	0.726404356999865	1	0	0
109	0	135	89	0	37	0	120	0.677640668000095	1	0	0
110	0	104	26	0	35	0	120	0.721754693000094	1	0	0
111	1	136	149	0	33	0	122	1.40129172800016	1	0	0
112	0	100	21	0	31	0	120	0.83919131499988	1	0	0
113	0	95	112	0	29	0	120	0.604262614000163	1	0	0
114	0	93	105	0	27	0	120	0.896218216999841	1	0	0
115	1	66	60	0	25	0	120	0.746079698000358	0	0	0
116	0	145	8	0	31	0	120	0.642312715000116	1	0	0
117	1	7	148	1	29	0	122	0.991004812000028	1	0	0
118	1	99	114	0	27	0	120	1.34098256300013	0	0	0
119	0	38	146	0	33	0	120	1.94937177999964	1	0	0
120	1	31	108	0	31	0	122	0.725253305000024	1	0	0
121	0	131	117	0	29	0	120	0.733740146999935	1	0	0
122	0	141	139	1	27	0	120	0.789763349000168	1	0	0
123	0	138	41	1	26	0	120	0.668066272000033	1	0	0
124	1	133	8	1	24	0	120	0.600056086000222	0	0	0
125	1	76	109	0	29	0	122	0.661851945999842	1	0	0
126	0	134	73	1	27	0	122	2.44926055399992	0	0	0
127	1	79	106	0	32	0	120	4.38047422599993	0	0	0
128	1	60	77	0	37	0	122	1.17154564099974	1	0	0
129	1	26	88	0	36	0	122	2.01036654100017	1	0	0
130	0	52	117	1	34	0	120	1.03990790399985	1	0	0
131	0	87	109	0	33	0	120	1.45946237299995	1	0	0
132	0	135	87	0	31	0	120	2.93414555400068	1	0	0
133	0	6	72	0	30	0	120	1.00785477400041	1	0	0
134	1	12	3	0	28	0	122	2.07551707899984	1	0	0
135	1	105	98	0	27	0	122	4.86265490300048	1	0	0
136	0	121	66	1	25	0	120	0.985603944000104	1	0	0
137	1	10	101	1	24	0	122	0.727078210999935	1	0	0
138	0	92	61	1	23	0	120	0.849328878000051	1	0	0
139	0	16	92	1	21	0	120	0.82083499700002	1	0	0
140	1	147	23	0	20	0	120	0.817270106000251	0	0	0
141	1	83	28	1	24	0	120	2.42207798199979	0	0	0
142	1	99	111	0	28	0	122	0.692333162999603	1	0	0
143	0	3	135	1	27	0	122	4.6749663239998	0	0	0
144	1	150	26	1	31	0	120	0.70318799100005	0	0	0
145	1	54	136	0	34	0	122	0.632535632000327	1	0	0
146	1	99	18	1	33	0	120	2.90258853900013	0	0	0
147	0	58	8	1	37	0	120	0.623306927000158	1	0	0
148	0	48	52	0	36	0	120	1.55577012199956	1	0	0
149	0	27	36	0	35	0	120	0.930356505999953	1	0	0
150	1	8	6	1	33	0	122	1.61915568199947	1	0	0
151	1	38	125	0	32	0	120	1.92974668999977	0	0	0
152	1	9	45	1	36	0	120	0.938029983999513	0	0	0
153	1	19	88	0	39	0	122	0.546182622000742	1	0	0
154	0	56	93	0	38	0	120	0.777212301999498	1	0	0
155	0	120	98	1	37	0	120	1.03218334499979	1	0	0
156	1	106	43	0	36	0	122	2.76406118699924	1	0	0
157	0	25	149	0	35	0	120	0.643891431999691	1	0	0
158	0	1	27	1	34	0	120	0.702172721999887	1	0	0
159	1	68	31	0	33	0	122	2.02520860299956	1	0	0
160	1	27	111	0	31	0	120	0.757366734999778	0	0	0
161	1	19	26	1	35	0	122	3.31765222099966	1	0	0
162	0	69	28	1	34	0	120	0.606227147000027	1	0	0
163	0	117	74	0	32	0	120	1.03552595600013	1	0	0
164	0	100	83	1	31	0	120	0.783559688999958	1	0	0
165	0	109	67	1	30	0	120	1.01538692000031	1	0	0
166	1	36	17	0	29	0	120	2.53994118899936	0	0	0
167	1	134	84	0	32	0	120	0.883141197999976	0	0	0
168	1	28	26	0	36	0	122	0.870505345999845	1	0	0
169	1	30	33	0	35	0	120	0.968292200000178	0	0	0
170	0	79	66	0	38	0	120	0.784539960999609	1	0	0
171	0	112	1	1	37	0	120	1.03979731700019	1	0	0
172	0	130	46	0	36	0	120	0.754467767000278	1	0	0
173	0	26	18	0	35	0	120	1.09050397999999	1	0	0
174	1	77	11	1	34	0	120	0.772701648999828	0	0	0
175	0	43	139	1	37	0	120	0.627829809999639	1	0	0
176	1	111	49	1	36	0	120	2.55982136900002	0	0	0
177	0	73	49	1	38	0	120	3.26342393200048	1	0	0
178	0	116	58	0	38	0	120	0.609560818999853	1	0	0
179	1	143	141	1	37	0	122	1.51881980000053	1	0	0
180	0	14	46	0	36	0	120	1.09707315600008	1	0	0
181	1	93	71	0	35	0	122	2.45091404200048	1	0	0
182	1	42	48	0	34	0	122	0.791194895000444	1	0	0
183	1	144	145	0	33	0	120	0.67714194599921	0	0	0
184	0	132	60	1	36	0	120	0.728173048999452	1	0	0
185	0	34	94	0	35	0	120	1.07998897699963	1	0	0
186	1	50	135	1	34	0	122	1.51425568100058	1	0	0
187	0	27	129	1	33	0	120	1.79521723299968	1	0	0
188	1	137	24	1	32	0	122	2.85831435199998	1	0	0
189	0	13	37	0	31	0	120	0.828611175999868	1	0	0
190	0	27	21	1	31	0	122	1.61046793999958	0	0	0
191	1	86	76	1	33	0	120	0.775630866000029	0	0	0
192	1	104	115	1	36	0	122	3.70982667399949	1	0	0
193	1	121	59	1	35	0	122	1.44394829300018	1	0	0
194	0	85	111	1	34	0	120	0.770920528999341	1	0	0
195	1	96	139	1	33	0	122	0.745546105000358	1	0	0
196	0	39	69	1	32	0	122	1.12943825999992	0	0	0
197	1	37	45	0	35	0	120	0.649624528999993	0	0	0
198	1	140	79	0	37	0	122	0.750636951999695	1	0	0
199	0	53	101	1	36	0	120	5.19759773099941	1	0	0
200	1	53	37	1	36	0	122	0.668352048000088	1	0	0
201	1	11	132	1	35	0	122	1.0265652019998	1	0	0
202	1	148	43	0	32	0	120	3.69457682600023	0	0	0
203	0	112	83	0	40	0	122	0.713127208000515	0	0	0
204	0	81	47	0	48	0	120	0.563660867999715	1	0	0
205	1	19	15	1	45	0	122	0.818833154999993	1	0	0
206	1	115	69	1	43	0	122	0.703449980000187	1	0	0
207	1	35	135	0	41	0	120	0.824402213999747	0	0	0
208	1	43	52	1	48	0	120	0.60571426199931	0	0	0
209	0	125	81	0	53	0	120	0.627183657999922	1	0	0
210	1	33	76	0	52	0	122	0.735086138000042	1	0	0
211	0	130	2	0	50	0	120	0.727056394999636	1	0	0
212	1	103	117	0	48	0	120	3.17707841599986	0	0	0
213	0	31	62	0	53	0	120	0.662510667999413	1	0	0
214	0	69	120	0	52	0	120	0.56966575000024	1	0	0
215	1	120	123	0	50	0	122	1.07353517299998	1	0	0
216	0	48	108	1	48	0	120	0.706994565000059	1	0	0
217	1	41	125	0	46	0	120	1.04531068000051	0	0	0
218	0	30	143	1	52	0	120	0.569549119999465	1	0	0
219	1	81	33	0	50	0	122	1.00013243299964	1	0	0
220	1	19	3	1	48	0	122	0.852751493999676	1	0	0
221	1	37	86	0	47	0	120	0.984391979000065	0	0	0
222	1	88	147	1	52	0	122	1.27883048500007	1	0	0
223	0	81	62	1	50	0	120	0.682760839999901	1	0	0
224	0	58	43	0	48	0	120	1.02127471699987	1	0	0
225	1	89	23	1	47	0	120	0.754186024999399	0	0	0
226	1	126	33	1	51	0	122	1.0815782389991	1	0	0
227	1	139	89	1	50	0	120	0.530596072999288	0	0	0
228	1	65	27	1	55	0	122	1.20344452800055	1	0	0
229	1	142	13	0	53	0	122	0.889945406999686	1	0	0
230	1	102	122	1	52	0	122	1.09920299800069	1	0	0
231	0	3	143	1	50	0	120	0.597115603999555	1	0	0
232	0	8	125	1	49	0	120	0.914327528000285	1	0	0
233	0	41	35	1	48	0	120	0.755735094000556	1	0	0
234	1	75	122	1	46	0	122	2.62806722000005	1	0	0
235	1	65	9	0	45	0	122	5.52049060100035	1	0	0
236	0	137	102	1	44	0	120	0.569585122000717	1	0	0
237	0	43	84	0	42	0	120	1.00782354399962	1	0	0
238	1	14	37	1	41	0	120	0.685713928000041	0	0	0
239	0	93	21	1	45	0	120	4.32830320299945	1	0	0
240	1	7	145	0	44	0	122	0.736705756999982	1	0	0
241	1	62	57	1	42	0	120	1.10432554799991	0	0	0
242	1	105	88	0	46	0	122	1.034446828	1	0	0
243	1	80	3	0	45	0	120	8.90992275000008	0	0	0
244	0	114	41	1	48	0	120	1.08021555400046	1	0	0
245	1	21	138	1	47	0	122	0.690129022999827	1	0	0
246	0	104	92	0	46	0	120	0.636357470999428	1	0	0
247	1	31	5	0	45	0	122	0.896651686999576	1	0	0
248	0	138	130	0	44	0	120	1.11365302600007	1	0	0
249	1	78	5	1	43	0	122	3.40399337800045	1	0	0
250	0	37	146	1	42	0	120	0.799933186000089	1	0	0
251	1	109	89	0	40	0	122	0.733662374000232	1	0	0
252	1	54	113	1	39	0	122	0.77401884900064	1	0	0
253	1	82	19	1	38	0	122	11.4064343310001	1	0	0
254	1	98	11	1	37	0	122	0.634995843999604	1	0	0
255	0	44	102	0	36	0	122	1.04750091999995	0	0	0
256	1	114	24	0	39	0	120	0.948053996999988	0	0	0
257	0	92	141	0	42	0	120	0.692077045000588	1	0	0
258	1	123	105	0	41	0	122	0.932968009000433	1	0	0
259	1	26	16	0	40	0	120	1.6549312219995	0	0	0
260	0	73	131	1	43	0	120	0.802290378999714	1	0	0
261	1	58	28	0	42	0	122	0.726817983999354	1	0	0
262	1	110	147	1	41	0	120	1.04053130600005	0	0	0
263	1	78	56	1	44	0	122	1.57240047400046	1	0	0
264	1	112	10	1	43	0	120	0.827344029000415	0	0	0
265	1	68	1	0	46	0	122	1.62421902000006	1	0	0
266	1	131	119	0	45	0	122	0.708859811000366	1	0	0
267	0	41	79	1	44	0	120	1.15683900600015	1	0	0
268	0	98	142	1	43	0	120	1.42933577799977	1	0	0
269	0	120	126	1	42	0	120	0.784744839999803	1	0	0
270	1	103	86	0	42	0	120	1.02445058500052	0	0	0
271	0	61	83	1	44	0	120	0.740199521999784	1	0	0
272	0	20	15	1	43	0	122	1.04446653500054	0	0	0
273	0	127	98	0	46	0	120	0.753273518000242	1	0	0
274	0	138	144	1	45	0	120	1.74455570699956	1	0	0
275	0	9	49	0	44	0	120	0.8150489009995	1	0	0
276	0	24	3	1	43	0	120	1.97332141099923	1	0	0
277	0	70	58	0	42	0	120	1.40362074099994	1	0	0
278	0	70	76	1	42	0	120	0.976542057000188	1	0	0
279	1	122	23	1	41	0	122	1.96791379200022	1	0	0
280	0	6	138	0	40	0	122	8.81502753200039	0	0	0
281	0	20	108	0	42	0	120	2.11596986400036	1	0	0
282	1	106	111	1	42	0	122	1.64653819199975	1	0	0
283	1	63	97	0	41	0	122	0.824922535000042	1	0	0
284	0	130	65	1	40	0	120	1.28689059499993	1	0	0
285	0	72	121	1	39	0	120	1.02476274700075	1	0	0
286	1	53	86	0	38	0	120	2.43659581700012	0	0	0
287	0	137	82	1	41	0	120	0.648856082000748	1	0	0
288	1	140	125	1	40	0	122	0.645575733999976	1	0	0
289	0	47	110	0	39	0	120	0.824809970000388	1	0	0
290	1	93	124	1	38	0	122	0.805507774000034	1	0	0
291	1	146	14	0	38	0	120	0.651001197999904	0	0	0
292	0	132	98	1	40	0	120	1.64737052600049	1	0	0
293	0	72	120	0	39	0	120	0.659089558999767	1	0	0
294	0	27	120	0	38	0	122	7.39038211099978	0	0	0
295	0	117	149	0	41	0	120	0.924284180000541	1	0	0
296	1	145	44	1	40	0	122	0.692747322000287	1	0	0
297	0	59	72	1	39	0	120	0.686063817000104	1	0	0
298	1	9	148	1	38	0	120	0.680232551999325	0	0	0
299	1	89	91	1	41	0	120	0.962298518000352	0	0	0
300	0	118	63	0	43	0	120	1.27363912400051	1	0	0
