Trial	Gender_Face1	Face1_nb	Face2_nb	Right_left_flip	Nb_Bubbles	Overlap_Target	Response	RT	Accuracy	Simi2Target	Trial_Reward
1	0	91	119	1	39	0	122	4.40529952198267	1	0	0
2	1	124	149	0	36	0	122	1.73666583601153	0	0	0
3	1	49	93	1	44	0	122	4.0483626939822	0	0	0
4	0	150	128	0	52	0	122	0.877657631004695	1	0	0
5	1	4	24	1	49	0	120	1.25630542001454	1	0	0
6	1	149	116	0	47	0	122	1.92997493798612	0	0	0
7	0	129	66	0	54	0	122	0.674634149007034	1	0	0
8	1	54	4	1	52	0	122	1.14303876296617	0	0	0
9	0	41	112	1	57	0	122	1.02204505604459	1	0	0
10	0	148	83	0	56	0	122	0.898463451012503	1	0	0
11	0	127	103	1	54	0	122	2.02075460297056	1	0	0
12	1	54	66	0	52	0	120	0.834234793030191	1	0	0
13	1	108	83	0	50	0	120	0.950414837046992	1	0	0
14	0	45	121	0	48	0	122	1.75022356800037	1	0	0
15	0	17	9	1	46	0	122	1.62154339801054	1	0	0
16	0	136	114	0	45	0	122	1.36424770997837	1	0	0
17	0	115	64	0	43	0	120	7.25540811795508	0	0	0
18	1	4	67	0	48	0	122	1.1676585249952	0	0	0
19	1	144	148	0	54	0	120	0.883430421992671	1	0	0
20	0	102	5	1	52	0	122	1.73493308899924	1	0	0
21	0	29	19	1	50	0	122	0.677124453010038	1	0	0
22	1	1	91	0	49	0	120	1.17075308499625	1	0	0
23	1	148	136	1	47	0	120	0.866875022009481	1	0	0
24	0	78	150	1	46	0	122	1.80183854402276	1	0	0
25	1	37	130	1	44	0	120	0.798874040017836	1	0	0
26	0	113	84	0	43	0	122	2.69945195596665	1	0	0
27	0	48	66	0	41	0	120	2.89329659799114	0	0	0
28	1	1	98	0	45	0	120	1.67211750801653	1	0	0
29	0	13	68	0	44	0	122	1.3234627119964	1	0	0
30	1	150	139	1	43	0	120	1.52989291294944	1	0	0
31	0	83	15	1	41	0	120	1.44433239102364	0	0	0
32	0	100	95	1	45	0	122	1.01666156400461	1	0	0
33	0	87	21	1	44	0	122	1.49352219997672	1	0	0
34	0	17	41	1	42	0	122	0.647461304033641	1	0	0
35	0	60	145	1	41	0	122	0.650785083998926	1	0	0
36	1	46	79	0	40	0	122	0.695385268016253	0	0	0
37	0	64	6	0	44	0	122	0.960362084035296	1	0	0
38	0	114	123	1	42	0	122	1.65592931502033	1	0	0
39	0	11	34	0	41	0	122	0.795722681970801	1	0	0
40	1	15	105	1	40	0	120	1.25806707900483	1	0	0
41	1	121	94	1	39	0	120	0.668788028997369	1	0	0
42	1	108	101	1	37	0	120	0.81611894199159	1	0	0
43	0	90	65	1	36	0	120	1.21994847903261	0	0	0
44	0	109	40	0	40	0	122	0.87219255999662	1	0	0
45	1	105	88	0	39	0	120	1.09091211197665	1	0	0
46	1	67	73	1	38	0	120	0.826638031983748	1	0	0
47	1	149	116	0	36	0	122	2.48770967696328	0	0	0
48	1	21	86	0	40	0	120	1.66480360302376	1	0	0
49	1	63	61	0	39	0	120	0.884942798002157	1	0	0
50	0	14	136	1	38	0	122	2.46182073000818	1	0	0
51	0	72	138	0	37	0	122	0.846894880000036	1	0	0
52	0	150	37	0	35	0	122	0.906857761030551	1	0	0
53	1	121	18	0	34	0	120	0.749741990002804	1	0	0
54	1	22	22	1	33	0	120	1.252580158005	1	0	0
55	1	129	99	0	32	0	120	1.23183877998963	1	0	0
56	0	90	145	0	31	0	122	1.25299124995945	1	0	0
57	1	87	14	1	30	0	120	2.6153015869786	1	0	0
58	0	115	63	0	29	0	122	1.2360395360156	1	0	0
59	0	3	90	0	28	0	122	0.800387322029565	1	0	0
60	0	83	47	1	27	0	120	1.66026685800171	0	0	0
61	0	46	145	0	30	0	122	1.22013358201366	1	0	0
62	0	88	19	0	29	0	122	1.39314665499842	1	0	0
63	0	81	145	1	28	0	122	1.74303786997916	1	0	0
64	1	61	12	1	27	0	122	0.663627328001894	0	0	0
65	1	76	58	1	30	0	122	0.881248443969525	0	0	0
66	0	14	103	1	33	0	122	1.78496778197587	1	0	0
67	1	99	128	1	32	0	120	0.752184610988479	1	0	0
68	0	53	52	1	31	0	120	1.17602647503372	0	0	0
69	0	26	67	1	34	0	122	1.15566344599938	1	0	0
70	1	127	121	0	33	0	122	1.036590254982	0	0	0
71	0	16	99	1	36	0	120	0.759078385017347	0	0	0
72	1	16	80	0	38	0	122	2.22927341400646	0	0	0
73	1	98	129	0	41	0	120	0.76376441802131	1	0	0
74	0	15	54	0	40	0	122	0.91405785997631	1	0	0
75	1	114	22	1	39	0	120	1.61996733897831	1	0	0
76	0	91	107	1	39	0	122	1.29383690498071	1	0	0
77	0	133	51	0	38	0	122	1.79180053202435	1	0	0
78	1	122	67	1	37	0	120	1.57288416300435	1	0	0
79	1	134	64	0	36	0	122	1.83596211700933	0	0	0
80	1	59	32	0	38	0	120	1.2160330649931	1	0	0
81	1	7	37	0	37	0	120	1.04573159903521	1	0	0
82	0	133	38	0	37	0	122	1.49792525195517	1	0	0
83	0	25	78	1	36	0	120	1.53929698700085	0	0	0
84	1	53	147	0	38	0	122	1.54720145696774	0	0	0
85	0	45	28	0	41	0	122	1.31529235903872	1	0	0
86	1	18	39	0	40	0	120	2.4324484509998	1	0	0
87	0	29	121	0	39	0	122	2.71954399399692	1	0	0
88	0	141	122	1	38	0	122	2.66607430396834	1	0	0
89	0	8	49	1	37	0	122	5.10039864201099	1	0	0
90	0	102	48	1	37	0	122	1.38168592902366	1	0	0
91	1	114	74	0	36	0	120	6.37984290602617	1	0	0
92	0	106	150	0	35	0	120	0.80268351000268	0	0	0
93	1	118	24	1	37	0	122	1.16882980801165	0	0	0
94	0	119	107	1	40	0	122	0.920277659024578	1	0	0
95	1	123	40	1	39	0	120	0.83328594599152	1	0	0
96	0	18	11	0	38	0	122	2.13451514800545	1	0	0
97	1	127	38	1	37	0	122	1.16486011300003	0	0	0
98	1	1	89	0	40	0	122	1.16535182902589	0	0	0
99	1	29	22	0	42	0	122	1.08470471500186	0	0	0
100	1	128	47	0	45	0	120	1.15876974898856	1	0	0
101	1	7	88	0	45	0	120	0.870805761951488	1	0	0
102	1	63	118	1	42	0	120	0.933590794971678	1	0	0
103	1	90	149	0	40	0	120	0.655357496987563	1	0	0
104	0	89	7	0	37	0	122	0.826761484961025	1	0	0
105	0	42	133	1	35	0	122	1.52114239102229	1	0	0
106	1	34	53	0	32	0	120	0.897549691959284	1	0	0
107	1	83	55	1	30	0	122	1.95056418300373	0	0	0
108	1	136	14	0	37	0	122	1.2863751379773	0	0	0
109	0	54	63	1	45	0	122	1.18384775699815	1	0	0
110	0	13	34	0	42	0	122	0.983545993047301	1	0	0
111	0	149	57	1	40	0	122	1.73117214202648	1	0	0
112	0	102	46	1	38	0	122	2.37402661697706	1	0	0
113	1	123	109	1	36	0	122	4.80535086401505	0	0	0
114	0	40	134	0	42	0	122	2.28882565599633	1	0	0
115	1	62	142	0	40	0	120	1.64304813597118	1	0	0
116	1	108	15	1	38	0	120	0.96717312297551	1	0	0
117	1	56	130	0	36	0	120	1.12764344300376	1	0	0
118	0	106	58	1	34	0	120	3.21733530197525	0	0	0
119	0	95	4	0	40	0	122	1.3546978639788	1	0	0
120	1	13	94	1	38	0	122	2.99771770898951	0	0	0
121	1	78	124	0	44	0	120	0.989614176971372	1	0	0
122	1	49	6	0	42	0	120	0.883862442045938	1	0	0
123	1	85	117	0	40	0	120	0.491020686982665	1	0	0
124	0	2	86	0	39	0	122	2.11997805500869	1	0	0
125	0	76	122	1	37	0	122	0.942614189989399	1	0	0
126	0	121	44	1	35	0	120	1.88977191899903	0	0	0
127	1	70	63	0	40	0	122	1.43700922798598	0	0	0
128	1	145	45	0	45	0	122	0.87563531199703	0	0	0
129	0	16	90	0	50	0	122	1.08496107999235	1	0	0
130	0	112	96	0	48	0	122	0.696118802006822	1	0	0
131	0	13	124	0	47	0	122	0.753769584000111	1	0	0
132	1	82	2	0	45	0	122	0.472550139995292	0	0	0
133	0	105	22	1	50	0	122	0.628206832043361	1	0	0
134	1	87	82	1	48	0	122	0.760251824045554	0	0	0
135	0	6	103	0	53	0	122	3.0390899470076	1	0	0
136	0	146	67	0	51	0	122	1.47510430397233	1	0	0
137	0	80	48	0	50	0	122	3.11248780996539	1	0	0
138	0	29	33	1	49	0	122	0.79558001703117	1	0	0
139	0	130	83	1	47	0	122	0.749045170028694	1	0	0
140	0	8	98	0	46	0	122	1.06687799404608	1	0	0
141	0	119	119	0	45	0	122	1.25284319597995	1	0	0
142	1	77	78	0	43	0	120	1.18471185199451	1	0	0
143	1	67	104	0	42	0	120	1.08470268198289	1	0	0
144	1	70	55	0	41	0	120	1.10777463100385	1	0	0
145	1	121	143	0	39	0	120	2.02957839297596	1	0	0
146	0	88	121	0	38	0	122	1.15483868704177	1	0	0
147	0	123	146	0	37	0	122	7.06530764803756	1	0	0
148	0	119	140	0	36	0	122	1.4610963719897	1	0	0
149	0	138	75	1	34	0	122	0.895224375010002	1	0	0
150	1	60	103	0	33	0	122	1.04117260698695	0	0	0
151	0	139	34	0	37	0	122	2.24583726801211	1	0	0
152	0	6	38	1	36	0	122	2.00899110501632	1	0	0
153	1	109	42	1	34	0	120	1.05611528101144	1	0	0
154	1	31	50	1	33	0	120	1.18644370901166	1	0	0
155	1	45	54	1	32	0	120	0.139132127980702	1	0	0
156	1	23	93	1	31	0	122	1.59214665199397	0	0	0
157	0	37	136	1	34	0	122	1.24571945698699	1	0	0
158	0	147	87	0	33	0	122	1.48680192499887	1	0	0
159	0	40	134	0	32	0	122	1.32349784800317	1	0	0
160	0	48	149	0	31	0	122	1.93179851101013	1	0	0
161	0	88	144	0	30	0	122	2.90116255701287	1	0	0
162	1	67	138	0	29	0	120	0.730234656017274	1	0	0
163	0	29	112	1	28	0	122	0.891936306958087	1	0	0
164	1	22	81	0	27	0	120	0.919096309982706	1	0	0
165	0	131	22	0	26	0	122	0.539677051012404	1	0	0
166	0	68	85	0	25	0	122	0.963957329979166	1	0	0
167	0	47	93	0	24	0	120	3.71556950296508	0	0	0
168	1	101	82	0	27	0	120	1.16410324303433	1	0	0
169	1	90	33	1	26	0	120	0.874802916019689	1	0	0
170	1	98	112	0	25	0	120	0.681370400008745	1	0	0
171	0	2	56	1	24	0	120	1.38735593995079	0	0	0
172	0	58	129	0	27	0	122	1.74613346194383	1	0	0
173	1	3	78	1	26	0	122	3.53835817001527	0	0	0
174	1	55	70	1	29	0	120	1.10554333101027	1	0	0
175	1	52	4	1	28	0	120	0.645910406019539	1	0	0
176	1	124	60	1	27	0	122	2.07015552802477	0	0	0
177	0	36	150	1	30	0	122	1.98469761502929	1	0	0
178	0	63	53	1	29	0	122	1.1671602880233	1	0	0
179	0	68	59	1	28	0	122	2.04616009100573	1	0	0
180	0	98	53	1	27	0	120	1.07328087702626	0	0	0
181	0	141	142	1	30	0	122	3.62145912001142	1	0	0
182	0	28	71	0	29	0	122	1.96193994797068	1	0	0
183	1	141	143	0	28	0	120	0.752998636977281	1	0	0
184	1	41	143	0	27	0	122	3.26087039598497	0	0	0
185	0	26	30	1	30	0	122	0.88109581900062	1	0	0
186	0	4	113	1	29	0	122	1.08302860095864	1	0	0
187	1	78	46	0	28	0	120	1.02174104499863	1	0	0
188	1	127	86	1	27	0	120	1.62618859298527	1	0	0
189	1	128	108	0	26	0	122	1.34361132699996	0	0	0
190	0	33	106	1	29	0	120	1.08406030497281	0	0	0
191	1	22	131	0	31	0	120	0.596357295988128	1	0	0
192	1	51	26	1	30	0	120	1.84577070799423	1	0	0
193	1	27	15	1	30	0	120	4.89796509902226	1	0	0
194	1	142	78	1	29	0	122	1.23577913700137	0	0	0
195	1	35	2	1	31	0	122	1.26696108496981	0	0	0
196	1	78	121	1	34	0	122	3.57130938401679	0	0	0
197	1	91	62	0	36	0	122	7.24100796395214	0	0	0
198	1	4	22	1	38	0	122	10.2606959120021	0	0	0
199	1	101	125	0	41	0	122	2.78144704300212	0	0	0
200	1	76	115	1	43	0	122	1.97376213996904	0	0	0
201	1	65	26	0	41	0	120	0.734643610019702	1	0	0
202	0	24	10	0	38	0	122	0.688773166039027	1	0	0
203	0	52	43	0	36	0	122	0.958975415967871	1	0	0
204	0	131	88	1	33	0	122	0.706071780005004	1	0	0
205	0	33	14	0	31	0	122	0.813204311998561	1	0	0
206	0	64	40	1	28	0	122	0.954952000989579	1	0	0
207	1	82	97	1	26	0	120	0.382599404954817	1	0	0
208	1	108	115	1	23	0	120	0.780288658977952	1	0	0
209	1	145	134	1	21	0	120	0.650538387999404	1	0	0
210	1	109	100	1	18	0	122	2.8856043650303	0	0	0
211	0	107	41	1	26	0	122	3.44897044199752	1	0	0
212	0	34	11	0	24	0	122	3.60472766100429	1	0	0
213	0	27	109	0	21	0	122	7.9516368570039	1	0	0
214	0	109	11	0	19	0	120	4.08856633800315	0	0	0
215	1	61	114	0	26	0	120	0.745087646995671	1	0	0
216	1	143	61	0	24	0	120	1.03074918600032	1	0	0
217	1	102	51	0	22	0	120	1.1873478309717	1	0	0
218	0	94	63	0	19	0	122	2.9389800230274	1	0	0
219	1	90	131	1	17	0	120	1.6342619319912	1	0	0
220	0	130	12	0	15	0	120	1.27800619398477	0	0	0
221	1	18	16	1	22	0	120	0.532321145990863	1	0	0
222	0	131	103	1	20	0	122	2.92515178897884	1	0	0
223	0	81	1	0	18	0	122	0.574752071988769	1	0	0
224	1	26	47	0	16	0	120	0.963127601018641	1	0	0
225	0	13	63	1	14	0	120	8.31547549198149	0	0	0
226	1	93	142	0	20	0	122	2.6360423330334	0	0	0
227	1	109	140	1	25	0	120	0.785227647982538	1	0	0
228	1	128	33	0	23	0	120	1.30923226603772	1	0	0
229	1	44	27	1	21	0	122	24.7004712600028	0	0	0
230	1	75	129	1	27	0	120	3.64695051999297	1	0	0
231	1	68	109	1	25	0	122	1.26721143804025	0	0	0
232	0	49	3	1	30	0	120	1.48484187101712	0	0	0
233	1	94	113	0	35	0	122	0.875008300004993	0	0	0
234	1	146	62	0	40	0	122	0.818002957035787	0	0	0
235	1	53	30	1	45	0	122	0.965526076965034	0	0	0
236	0	51	82	1	49	0	122	0.901688635000028	1	0	0
237	1	10	40	0	48	0	122	2.56047498696717	0	0	0
238	1	27	48	0	52	0	120	1.16671175998636	1	0	0
239	0	66	109	1	51	0	122	0.702800602011848	1	0	0
240	1	50	109	0	49	0	122	0.919177902978845	0	0	0
241	0	75	14	1	54	0	122	0.788806652999483	1	0	0
242	0	88	45	0	52	0	122	0.597294194973074	1	0	0
243	0	46	71	0	51	0	122	0.644358930003364	1	0	0
244	0	106	139	1	49	0	122	0.638833776989486	1	0	0
245	0	116	54	0	48	0	122	0.909481312031858	1	0	0
246	0	100	150	1	47	0	122	0.863233283977024	1	0	0
247	0	97	34	0	45	0	122	0.78632956801448	1	0	0
248	1	40	95	1	44	0	120	0.861661726026796	1	0	0
249	0	108	95	0	43	0	122	1.93682927900227	1	0	0
250	0	73	57	0	41	0	122	0.804257684038021	1	0	0
251	0	19	38	0	40	0	120	1.22043795499485	0	0	0
252	0	74	74	0	44	0	122	0.961581494018901	1	0	0
253	0	126	47	0	43	0	122	0.68945631897077	1	0	0
254	1	33	130	1	42	0	120	0.875222172006033	1	0	0
255	0	115	34	0	40	0	122	1.05366681801388	1	0	0
256	1	50	56	0	39	0	120	1.227118676994	1	0	0
257	0	101	56	0	38	0	120	1.43361961102346	0	0	0
258	1	67	118	1	41	0	120	0.832617146952543	1	0	0
259	0	51	26	0	40	0	122	1.53375004098052	1	0	0
260	0	78	92	1	39	0	122	1.51641348801786	1	0	0
261	0	91	30	1	38	0	120	3.46266718301922	0	0	0
262	1	83	27	1	41	0	120	0.609821517951787	1	0	0
263	0	91	97	1	40	0	122	0.806817381992005	1	0	0
264	1	35	123	0	39	0	120	0.307078865997028	1	0	0
265	1	72	128	0	38	0	120	1.51706960599404	1	0	0
266	0	86	12	0	37	0	120	0.558039991010446	0	0	0
267	1	76	135	0	40	0	120	0.153527182003018	1	0	0
268	1	10	70	0	39	0	120	1.28478211699985	1	0	0
269	1	83	10	0	38	0	120	0.581494719022885	1	0	0
270	0	136	91	0	37	0	120	2.77910206100205	0	0	0
271	1	142	41	0	40	0	120	1.29765353701077	1	0	0
272	1	146	75	0	39	0	122	2.46504613099387	0	0	0
273	0	17	53	0	42	0	120	3.14930585498223	0	0	0
274	0	12	17	0	45	0	122	0.822888592025265	1	0	0
275	0	117	116	1	44	0	122	1.39466917497339	1	0	0
276	0	132	31	0	43	0	120	1.04143431101693	0	0	0
277	0	20	51	0	46	0	122	0.618106703972444	1	0	0
278	1	113	117	1	45	0	120	0.882578179007396	1	0	0
279	0	28	41	1	44	0	122	1.33413255499909	1	0	0
280	1	55	110	1	43	0	120	0.549822820990812	1	0	0
281	0	82	41	0	42	0	122	0.661508339981083	1	0	0
282	0	10	67	0	41	0	122	1.43294224195415	1	0	0
283	0	24	82	0	40	0	122	1.08934375800891	1	0	0
284	1	6	78	1	39	0	120	0.736579136049841	1	0	0
285	1	98	40	0	38	0	120	0.688221504969988	1	0	0
286	0	82	145	1	37	0	120	0.829539093014318	0	0	0
287	0	5	24	0	40	0	122	0.8274647880462	1	0	0
288	1	145	3	0	39	0	120	0.616490239975974	1	0	0
289	1	60	31	1	38	0	120	0.0218368609785102	1	0	0
290	1	139	42	0	37	0	120	0.740606604027562	1	0	0
291	1	3	149	0	36	0	120	0.892099471006077	1	0	0
292	1	136	16	1	36	0	120	0.740772311983164	1	0	0
293	1	107	23	1	35	0	120	0.517227780015673	1	0	0
294	1	115	90	0	34	0	120	0.622452386014629	1	0	0
295	0	4	148	0	33	0	120	3.2822538909968	0	0	0
296	1	49	100	1	36	0	120	0.573620348994154	1	0	0
297	0	145	106	1	35	0	122	2.05173145799199	1	0	0
298	0	11	108	0	34	0	120	3.43093239999143	0	0	0
299	0	54	105	0	36	0	122	1.44402229198022	1	0	0
300	1	109	106	1	36	0	120	1.77072394400602	1	0	0
