Trial	Gender_Face1	Face1_nb	Face2_nb	Right_left_flip	Nb_Bubbles	Overlap_Target	Response	RT	Accuracy	Simi2Target	Trial_Reward
1	1	1	19	0	72	0	120	6.91468208399965	0	0	0
2	0	124	139	1	80	0	120	4.7893117170006	1	0	0
3	0	3	116	0	77	0	120	1.27994388200023	1	0	0
4	1	119	149	1	75	0	120	3.11572973200055	0	0	0
5	1	113	81	1	82	0	122	2.43328165499952	1	0	0
6	0	136	143	0	80	0	120	2.46900212299988	1	0	0
7	0	109	7	0	78	0	120	1.5105609229995	1	0	0
8	0	102	1	0	76	0	120	4.74370472400005	1	0	0
9	0	104	61	0	74	0	120	1.3928652980012	1	0	0
10	1	131	124	0	72	0	120	2.61555608799972	0	0	0
11	0	99	35	1	78	0	120	9.15546883700154	1	0	0
12	0	73	121	1	76	0	122	1.6594355950001	0	0	0
13	1	8	133	0	82	0	122	14.8310796609985	1	0	0
14	1	77	74	0	80	0	122	1.83129819200076	1	0	0
15	0	10	149	0	79	0	120	1.43657633899966	1	0	0
16	0	127	124	1	77	0	120	1.60142037600053	1	0	0
17	1	115	138	1	75	0	122	1.49525769100001	1	0	0
18	0	117	106	0	73	0	120	3.40953862999959	1	0	0
19	1	78	136	0	71	0	122	1.00325952200001	1	0	0
20	1	101	114	0	70	0	122	0.938427495999349	1	0	0
21	1	89	42	1	68	0	122	2.276613394999	1	0	0
22	0	66	9	0	66	0	120	1.96602070500012	1	0	0
23	1	93	143	0	65	0	122	3.4526928890009	1	0	0
24	0	139	59	0	63	0	120	3.8441629379995	1	0	0
25	0	68	56	1	61	0	120	1.27620541599936	1	0	0
26	1	13	44	1	60	0	120	1.52712766200057	0	0	0
27	0	59	86	1	65	0	120	1.18417401700026	1	0	0
28	0	149	132	0	63	0	122	1.2952321949997	0	0	0
29	0	55	3	0	68	0	120	1.71442417000071	1	0	0
30	0	123	63	1	66	0	122	3.23569892900014	0	0	0
31	0	107	11	1	71	0	120	1.21294938699975	1	0	0
32	0	148	55	0	69	0	120	0.979719091999868	1	0	0
33	0	32	78	0	68	0	120	1.83573191899995	1	0	0
34	0	58	3	1	66	0	120	1.14344144999995	1	0	0
35	0	9	86	1	65	0	120	1.80090731199925	1	0	0
36	0	128	8	0	63	0	120	1.93409841799985	1	0	0
37	0	44	136	1	62	0	120	2.21379285200055	1	0	0
38	1	38	20	1	61	0	122	1.93602681499942	1	0	0
39	1	23	65	0	59	0	120	1.05781936100175	0	0	0
40	0	89	6	0	63	0	120	1.1661129840013	1	0	0
41	1	116	111	1	62	0	122	1.02285248099906	1	0	0
42	0	121	52	0	61	0	120	1.94111652100037	1	0	0
43	0	116	42	1	59	0	120	1.56473526099944	1	0	0
44	1	3	74	1	58	0	122	2.06868304900127	1	0	0
45	0	59	85	0	57	0	120	1.59919870900012	1	0	0
46	0	105	6	0	56	0	122	1.43660943699979	0	0	0
47	0	49	16	1	59	0	120	0.897443051000664	1	0	0
48	1	118	133	1	58	0	120	2.44515759400019	0	0	0
49	0	101	115	1	62	0	120	1.55942313999913	1	0	0
50	1	30	23	0	61	0	120	2.28662427100062	0	0	0
51	1	78	115	1	64	0	122	0.879145860999415	1	0	0
52	0	134	127	0	63	0	122	3.14082593700005	0	0	0
53	1	115	44	0	66	0	122	1.314073689	1	0	0
54	1	56	67	1	65	0	122	1.35649221399945	1	0	0
55	0	88	87	0	64	0	122	2.30844857199918	0	0	0
56	0	107	46	1	68	0	120	2.05276553399926	1	0	0
57	1	66	50	1	66	0	122	3.6723459779987	1	0	0
58	0	21	101	1	65	0	120	8.75131539799986	1	0	0
59	1	55	130	0	64	0	122	62.2236284770006	1	0	0
60	0	119	4	0	63	0	120	1.38586040200062	1	0	0
61	1	129	82	0	62	0	122	1.85004228999969	1	0	0
62	0	24	54	0	61	0	120	2.98080561800089	1	0	0
63	0	130	82	1	60	0	122	3.95265646299958	0	0	0
64	1	34	100	1	63	0	122	1.69932195799993	1	0	0
65	0	38	36	0	62	0	120	2.19690565800011	1	0	0
66	1	13	112	0	61	0	120	2.34651267899972	0	0	0
67	1	83	118	1	64	0	122	1.19275446100073	1	0	0
68	0	15	129	0	63	0	120	1.09476140400147	1	0	0
69	1	79	17	0	62	0	122	2.36275371000011	1	0	0
70	1	50	122	0	61	0	120	0.864068394999777	0	0	0
71	0	43	71	0	64	0	120	0.685331205000693	1	0	0
72	0	61	62	1	63	0	120	0.441836550000517	1	0	0
73	0	148	93	1	62	0	120	0.69602165699871	1	0	0
74	1	135	27	1	61	0	122	0.980201660999228	1	0	0
75	0	107	72	0	60	0	120	2.27570055000069	1	0	0
76	1	20	87	1	59	0	120	5.78136570300012	0	0	0
77	0	31	115	0	62	0	122	22.2187503650002	0	0	0
78	0	133	98	0	65	0	120	0.747860535000655	1	0	0
79	0	19	2	0	64	0	120	1.19011395500092	1	0	0
80	0	61	144	0	63	0	120	1.61341141199955	1	0	0
81	1	64	101	1	62	0	122	2.41884688100072	1	0	0
82	1	110	2	0	61	0	120	2.5581511929995	0	0	0
83	1	93	125	1	64	0	120	22.3474541320011	0	0	0
84	1	104	107	0	67	0	122	1.1590486669993	1	0	0
85	0	93	114	1	66	0	120	1.33484017900082	1	0	0
86	1	122	40	1	65	0	122	3.12797751300059	1	0	0
87	1	74	61	1	64	0	120	4.95787658300105	0	0	0
88	1	131	16	0	67	0	122	7.87929319499926	1	0	0
89	1	6	117	1	66	0	122	2.90090607999991	1	0	0
90	0	130	8	1	65	0	120	1.06002397400152	1	0	0
91	1	93	40	1	64	0	122	1.27264387900141	1	0	0
92	0	15	68	1	63	0	120	0.739963927000645	1	0	0
93	0	32	135	0	62	0	120	1.16690494500108	1	0	0
94	0	106	61	0	62	0	120	1.13504472100067	1	0	0
95	0	82	13	1	61	0	120	0.993386209000164	1	0	0
96	1	75	98	0	60	0	122	0.816616817999602	1	0	0
97	1	17	19	1	59	0	122	0.952106606999223	1	0	0
98	1	27	7	0	58	0	122	1.92896357499922	1	0	0
99	1	18	82	1	58	0	122	3.32166572000096	1	0	0
100	1	7	47	1	57	0	122	1.07829357100127	1	0	0
101	0	92	127	0	56	0	120	0.899660933999257	1	0	0
102	0	6	21	1	53	0	122	2.84368726100001	0	0	0
103	1	123	144	1	61	0	120	2.04834478200064	0	0	0
104	1	65	142	0	69	0	122	11.3066527540013	1	0	0
105	1	55	70	1	66	0	122	1.01534168900071	1	0	0
106	1	79	98	1	64	0	120	7.29325705299925	0	0	0
107	1	71	85	0	71	0	120	10.1433485859998	0	0	0
108	1	82	57	0	77	0	122	2.14998420299889	1	0	0
109	1	114	82	1	75	0	120	8.2688721329996	0	0	0
110	1	71	136	0	80	0	122	2.99370621299931	1	0	0
111	1	1	100	0	79	0	122	1.34862727199834	1	0	0
112	0	97	34	1	77	0	120	0.829447734000496	1	0	0
113	1	113	73	0	75	0	122	1.14001409000048	1	0	0
114	1	23	65	1	73	0	122	7.70113968000078	1	0	0
115	1	38	80	1	72	0	122	1.19407322199913	1	0	0
116	0	25	130	1	70	0	120	2.80050139000014	1	0	0
117	0	49	97	0	68	0	122	3.80373060300008	0	0	0
118	0	115	100	0	73	0	120	2.54883219399926	1	0	0
119	0	69	23	1	72	0	120	2.09901012099908	1	0	0
120	0	10	110	1	70	0	120	6.52444233200004	1	0	0
121	0	121	77	0	69	0	120	1.32289658599984	1	0	0
122	0	40	28	1	67	0	120	1.23687896299998	1	0	0
123	1	49	4	0	65	0	122	1.58722577799927	1	0	0
124	1	124	87	1	64	0	122	0.809556985999734	1	0	0
125	1	146	68	1	62	0	120	0.784139822000725	0	0	0
126	0	42	85	1	67	0	120	1.46437817699916	1	0	0
127	1	131	13	0	65	0	122	1.86908795300042	1	0	0
128	0	60	1	0	64	0	120	1.31256790799853	1	0	0
129	1	32	97	0	63	0	122	2.01099633199919	1	0	0
130	0	33	3	1	61	0	122	4.3433550030004	0	0	0
131	0	83	146	0	65	0	120	1.25709842099968	1	0	0
132	1	145	124	0	64	0	122	1.190613888999	1	0	0
133	0	96	115	0	63	0	120	0.798018464000052	1	0	0
134	1	3	78	1	61	0	122	1.03806778199942	1	0	0
135	1	112	138	1	60	0	120	4.59567113199955	0	0	0
136	1	14	65	0	64	0	120	1.04392364200066	0	0	0
137	1	33	100	0	68	0	122	2.3291420000005	1	0	0
138	1	73	78	1	67	0	122	0.959761083000558	1	0	0
139	0	35	99	0	65	0	120	1.41602660999888	1	0	0
140	0	41	94	1	64	0	120	1.79780232200028	1	0	0
141	1	7	25	1	63	0	122	0.819517582998742	1	0	0
142	1	6	59	1	62	0	122	2.57891809600005	1	0	0
143	1	134	147	1	60	0	122	1.20678896800018	1	0	0
144	0	53	117	0	59	0	122	1.50180122500024	0	0	0
145	0	110	68	0	63	0	122	3.02300207799999	0	0	0
146	1	116	70	1	66	0	120	1.50601507600004	0	0	0
147	1	126	81	1	70	0	122	1.78838665200055	1	0	0
148	1	102	82	0	69	0	122	0.897609170999203	1	0	0
149	1	131	77	0	68	0	120	1.99697186100093	0	0	0
150	0	23	110	0	71	0	120	3.17043222999928	1	0	0
151	1	19	106	0	70	0	122	2.47080423499938	1	0	0
152	1	116	38	0	69	0	122	0.942848605998734	1	0	0
153	0	104	132	0	68	0	122	3.3936055209997	0	0	0
154	1	71	50	1	71	0	122	0.972530165001444	1	0	0
155	1	64	150	0	70	0	122	2.04489326200019	1	0	0
156	1	35	38	1	69	0	120	1.24768017600036	0	0	0
157	1	145	58	1	72	0	122	19.7244540520005	1	0	0
158	0	133	95	1	71	0	120	1.26287974800107	1	0	0
159	0	4	20	1	70	0	120	11.6182782619999	1	0	0
160	0	106	131	1	69	0	120	1.21860996199939	1	0	0
161	1	108	13	1	68	0	122	1.1849776300005	1	0	0
162	0	59	28	1	67	0	120	1.15202227599912	1	0	0
163	1	11	138	1	66	0	120	5.72932602699984	0	0	0
164	1	130	55	0	69	0	120	0.784903476000181	0	0	0
165	1	18	128	1	72	0	122	0.873521584000628	1	0	0
166	1	7	62	0	71	0	122	0.838850296999226	1	0	0
167	0	143	2	0	70	0	120	0.860742192000544	1	0	0
168	0	27	126	0	69	0	120	2.06600466700002	1	0	0
169	0	135	103	1	68	0	122	1.00417856599961	0	0	0
170	0	38	15	0	71	0	120	2.12301128800027	1	0	0
171	1	107	69	1	70	0	122	3.36215053699925	1	0	0
172	0	124	74	1	69	0	120	1.23093212599997	1	0	0
173	0	20	141	1	68	0	120	3.75615207600094	1	0	0
174	0	115	74	1	67	0	120	3.23883134199968	1	0	0
175	0	147	128	0	66	0	120	4.35162400500121	1	0	0
176	0	114	135	1	65	0	122	10.7772534490014	0	0	0
177	1	87	140	0	68	0	122	1.7017452070013	1	0	0
178	1	104	71	0	67	0	122	1.17511754099905	1	0	0
179	1	133	105	1	66	0	120	0.79145129599965	0	0	0
180	1	127	24	0	69	0	120	1.45533158999933	0	0	0
181	0	69	83	0	71	0	120	2.46818129700114	1	0	0
182	1	111	51	1	71	0	120	1.64527528700091	0	0	0
183	0	49	43	1	73	0	120	2.27318963499965	1	0	0
184	1	28	138	0	72	0	122	0.89092789499955	1	0	0
185	1	72	4	1	72	0	120	0.671564953001507	0	0	0
186	0	114	24	0	74	0	122	2.56444688200099	0	0	0
187	1	112	50	0	77	0	120	1.0815458599991	0	0	0
188	0	96	102	1	79	0	120	0.693534994999936	1	0	0
189	0	125	129	1	78	0	122	1.36998911000046	0	0	0
190	0	115	85	1	81	0	120	4.8331783779995	1	0	0
191	1	56	47	1	80	0	120	0.710571634999724	0	0	0
192	1	133	47	1	83	0	120	1.38594185200054	0	0	0
193	0	52	49	1	85	0	120	1.11225707899939	1	0	0
194	0	109	49	1	84	0	120	4.83495547599887	1	0	0
195	1	45	44	0	84	0	120	0.856540122000297	0	0	0
196	1	115	132	0	86	0	120	0.725742861000981	0	0	0
197	1	57	145	1	89	0	120	0.895908235999741	0	0	0
198	0	136	92	1	91	0	120	0.819391640001413	1	0	0
199	1	131	143	1	90	0	122	2.31433929400009	1	0	0
200	0	140	116	0	90	0	120	1.72257267099849	1	0	0
201	0	106	100	1	89	0	120	4.58565285400073	1	0	0
202	0	73	111	1	86	0	120	7.59892620599931	1	0	0
203	0	37	53	1	84	0	120	0.939192662999631	1	0	0
204	0	16	117	0	81	0	120	4.14162509800008	1	0	0
205	1	74	15	1	79	0	120	1.08913933799886	0	0	0
206	1	113	18	0	86	0	122	1.01290838400018	1	0	0
207	0	100	2	1	84	0	120	1.74806340200121	1	0	0
208	0	73	114	0	82	0	122	2.50701427499916	0	0	0
209	1	104	99	0	89	0	122	1.13072540699977	1	0	0
210	0	41	15	1	87	0	120	5.81311466099942	1	0	0
211	0	29	113	1	85	0	122	1.20161193500098	0	0	0
212	1	76	102	0	91	0	122	13.9517487519988	1	0	0
213	1	82	104	0	89	0	122	1.03722402499989	1	0	0
214	0	37	22	0	87	0	120	2.82800169499933	1	0	0
215	0	99	56	0	85	0	120	1.58147297399955	1	0	0
216	0	22	35	1	83	0	120	2.02836030400067	1	0	0
217	1	117	143	1	81	0	122	1.23224391499934	1	0	0
218	0	36	98	1	79	0	120	1.79766596800073	1	0	0
219	0	41	51	1	77	0	120	3.28297304300031	1	0	0
220	1	82	72	1	75	0	122	1.33762179699988	1	0	0
221	0	103	146	0	74	0	120	1.94702390599923	1	0	0
222	0	121	76	0	72	0	120	3.53035742999964	1	0	0
223	1	89	18	1	70	0	120	2.43874832999973	0	0	0
224	0	127	120	1	76	0	120	2.24172431099942	1	0	0
225	1	69	23	1	74	0	122	6.26896351699907	1	0	0
226	0	85	117	0	72	0	120	2.36692763800056	1	0	0
227	1	128	5	0	70	0	122	2.22843602899957	1	0	0
228	1	57	31	1	69	0	122	1.03919802000019	1	0	0
229	1	61	19	1	67	0	120	2.09317607199955	0	0	0
230	0	149	52	1	72	0	120	1.73510265999903	1	0	0
231	0	55	119	0	70	0	120	3.45510825700148	1	0	0
232	0	74	25	1	69	0	120	0.718843618000392	1	0	0
233	1	19	143	0	67	0	122	1.37798798900076	1	0	0
234	0	107	107	0	66	0	120	3.04193252799996	1	0	0
235	0	60	67	1	64	0	120	42.458745594	1	0	0
236	0	13	57	1	63	0	122	1.45401153800049	0	0	0
237	1	80	19	0	67	0	120	1.10669080200023	0	0	0
238	1	130	4	0	71	0	120	1.78155709999919	0	0	0
239	0	17	66	0	76	0	120	0.931185012999777	1	0	0
240	0	78	71	1	74	0	120	0.845935188999647	1	0	0
241	1	67	138	0	73	0	122	1.85842894400048	1	0	0
242	0	75	10	1	71	0	120	0.74146160500095	1	0	0
243	0	34	71	0	70	0	120	0.870626903999437	1	0	0
244	0	141	70	0	69	0	120	0.844164767999246	1	0	0
245	0	118	97	1	67	0	120	0.865225501998793	1	0	0
246	1	44	39	1	66	0	120	6.00717747999988	0	0	0
247	1	76	4	1	70	0	122	1.09086814399961	1	0	0
248	1	44	119	0	69	0	120	1.09385831600048	0	0	0
249	1	19	80	0	73	0	122	1.19306485200104	1	0	0
250	1	97	138	1	71	0	120	1.72787863799931	0	0	0
251	0	14	68	1	75	0	120	1.58429493899894	1	0	0
252	0	56	31	1	74	0	122	4.1667384809989	0	0	0
253	0	57	9	0	78	0	120	1.56001357600144	1	0	0
254	0	143	6	0	76	0	120	1.29610205300014	1	0	0
255	0	132	15	1	75	0	122	1.89880300100049	0	0	0
256	1	34	70	0	79	0	120	1.26746511999954	0	0	0
257	1	112	103	1	82	0	122	3.67154702500011	1	0	0
258	0	18	140	0	81	0	122	0.974394967999615	0	0	0
259	0	74	102	0	85	0	120	1.59105908700076	1	0	0
260	0	37	14	0	84	0	120	0.637326654001299	1	0	0
261	1	34	93	0	82	0	120	0.995409458000722	0	0	0
262	1	70	122	0	86	0	122	1.62693044200023	1	0	0
263	1	5	12	1	85	0	122	1.13503928099999	1	0	0
264	1	39	16	1	84	0	122	4.04897945800076	1	0	0
265	0	143	1	1	83	0	120	0.992518578999807	1	0	0
266	0	108	77	0	81	0	120	1.20791350900072	1	0	0
267	1	27	116	1	80	0	122	0.957694234999508	1	0	0
268	0	135	62	1	79	0	122	2.14252756399947	0	0	0
269	1	81	92	0	82	0	122	2.77398451500085	1	0	0
270	0	76	51	1	81	0	120	0.762726291000945	1	0	0
271	0	80	50	1	80	0	120	1.70729007899899	1	0	0
272	1	47	17	1	79	0	122	1.32435581400023	1	0	0
273	0	114	107	1	78	0	122	3.08544079300009	0	0	0
274	1	113	94	0	81	0	122	0.708764748000249	1	0	0
275	0	136	62	1	80	0	120	0.600785413000267	1	0	0
276	0	36	79	0	79	0	120	1.4889598259997	1	0	0
277	0	121	12	0	78	0	120	3.86892841900044	1	0	0
278	0	44	24	1	77	0	120	2.58668494400081	1	0	0
279	0	142	130	0	76	0	120	0.654990435999935	1	0	0
280	1	116	53	1	75	0	120	1.15631034499893	0	0	0
281	0	102	78	1	78	0	120	4.13112051600001	1	0	0
282	1	16	45	0	77	0	122	1.27895412300131	1	0	0
283	1	38	149	0	77	0	122	5.98659668599976	1	0	0
284	0	55	40	1	76	0	120	2.02374669200071	1	0	0
285	1	110	86	0	75	0	120	0.843407811000361	0	0	0
286	0	25	136	1	77	0	120	5.07294586500029	1	0	0
287	0	130	58	0	77	0	120	3.02868460500031	1	0	0
288	1	139	120	0	76	0	120	4.46940458100107	0	0	0
289	1	139	147	0	78	0	122	2.30705712300005	1	0	0
290	1	67	14	1	77	0	122	1.594469863001	1	0	0
291	1	60	47	1	77	0	122	1.89613534300042	1	0	0
292	0	84	41	1	76	0	120	2.15328092799973	1	0	0
293	1	60	115	1	75	0	122	1.6628875410006	1	0	0
294	0	86	99	0	74	0	120	2.29385396500038	1	0	0
295	1	124	55	0	73	0	122	4.7397472470002	1	0	0
296	0	120	120	1	73	0	120	1.06148565600051	1	0	0
297	1	102	57	0	72	0	122	4.77755222299857	1	0	0
298	0	84	41	0	71	0	120	0.960054070001206	1	0	0
299	0	20	36	1	70	0	122	1.60889305300043	0	0	0
300	1	22	137	1	73	0	122	11.0779006619996	1	0	0
301	1	89	108	0	72	0	122	2.3825199769999	1	0	0
302	1	72	136	0	69	0	122	0.872298424999826	1	0	0
303	1	63	97	1	67	0	122	1.16729778399895	1	0	0
304	0	76	90	1	64	0	120	0.975391964000664	1	0	0
305	1	134	140	0	62	0	122	1.03106526699958	1	0	0
306	0	144	34	0	59	0	120	0.757639616000233	1	0	0
307	1	68	85	1	57	0	122	1.58333180499903	1	0	0
308	0	150	136	1	54	0	120	0.909024995999062	1	0	0
309	0	143	54	1	52	0	120	0.71322025399968	1	0	0
310	0	59	108	1	49	0	120	0.852903216999039	1	0	0
311	1	19	19	0	47	0	122	1.13953476399911	1	0	0
312	1	52	122	0	44	0	120	0.82059098100035	0	0	0
313	0	89	70	0	52	0	120	1.31502259700028	1	0	0
314	1	11	43	0	49	0	120	2.66156393500023	0	0	0
315	0	88	54	0	56	0	120	0.942716145000304	1	0	0
316	0	122	12	0	54	0	120	1.1426947100008	1	0	0
317	1	15	133	1	52	0	120	0.897149794000143	0	0	0
318	1	129	131	1	59	0	122	0.709186334999686	1	0	0
319	1	144	45	1	57	0	122	1.16846584700033	1	0	0
320	1	85	94	0	55	0	122	1.72084723899934	1	0	0
321	0	7	88	1	53	0	120	1.33075105300122	1	0	0
322	0	90	53	1	51	0	120	3.62044092099859	1	0	0
323	1	93	15	1	49	0	122	4.13325293100024	1	0	0
324	0	23	62	1	47	0	120	3.36799259500003	1	0	0
325	1	36	129	1	45	0	122	4.01187245799883	1	0	0
326	1	142	65	0	43	0	122	0.837387532999855	1	0	0
327	0	41	142	0	41	0	122	1.20347742800004	0	0	0
328	0	9	36	0	47	0	120	2.37016001400116	1	0	0
329	0	138	46	1	45	0	120	2.89530280100007	1	0	0
330	0	48	85	1	44	0	120	0.998245716999008	1	0	0
331	1	91	77	1	42	0	120	1.43786533099956	0	0	0
332	0	4	34	0	47	0	120	0.979216972000359	1	0	0
333	0	62	59	1	45	0	120	1.00322124800005	1	0	0
334	0	63	100	0	44	0	120	0.961244374000671	1	0	0
335	0	89	26	1	42	0	120	0.929798941000627	1	0	0
336	1	60	129	1	41	0	122	0.859761605999665	1	0	0
337	0	111	91	0	39	0	120	1.62492219200067	1	0	0
338	0	96	33	1	38	0	120	0.838209829000334	1	0	0
339	1	14	136	0	36	0	122	4.51668679100112	1	0	0
340	1	25	118	0	35	0	122	1.9197173040011	1	0	0
341	0	147	120	0	33	0	122	2.00834681600099	0	0	0
342	1	143	144	0	37	0	122	0.997193490999052	1	0	0
343	1	129	124	1	36	0	122	1.44466581099914	1	0	0
344	0	139	35	0	35	0	120	1.29729118100113	1	0	0
345	0	100	77	1	33	0	122	0.891538734998903	0	0	0
346	0	116	57	1	37	0	120	0.790621374000693	1	0	0
347	1	108	73	0	36	0	122	1.31906737600002	1	0	0
348	0	41	72	0	34	0	120	1.87316255199949	1	0	0
349	0	1	25	0	33	0	120	0.795694144000663	1	0	0
350	0	23	10	1	32	0	120	1.02779833400018	1	0	0
351	0	89	61	1	31	0	120	4.70621806100098	1	0	0
352	0	11	74	0	29	0	122	2.34930176499984	0	0	0
353	0	129	105	0	33	0	120	1.41104420600095	1	0	0
354	0	71	14	1	32	0	120	2.11234764099936	1	0	0
355	1	95	50	1	31	0	122	0.872829866999382	1	0	0
356	0	17	127	1	30	0	120	2.72573324000041	1	0	0
357	0	58	138	0	28	0	120	2.4916258409994	1	0	0
358	1	15	136	1	27	0	120	0.811302565000005	0	0	0
359	0	104	43	0	31	0	122	1.92292932800046	0	0	0
360	0	148	150	1	34	0	120	1.70717391700055	1	0	0
361	1	127	76	1	33	0	120	5.3091929330003	0	0	0
362	1	47	144	0	36	0	122	1.0059598379994	1	0	0
363	1	121	74	1	35	0	120	3.50826320499982	0	0	0
364	0	69	131	0	39	0	120	1.41786752100052	1	0	0
365	0	18	44	1	38	0	120	1.34277541799929	1	0	0
366	1	43	66	1	36	0	120	1.1746831319997	0	0	0
367	1	81	150	0	40	0	122	2.08616973400058	1	0	0
368	1	61	5	0	39	0	120	1.68041836100019	0	0	0
369	0	93	101	1	42	0	120	0.962737009000193	1	0	0
370	1	37	12	0	41	0	120	6.37126078999972	0	0	0
371	0	108	5	0	44	0	120	1.07972967100068	1	0	0
372	1	24	38	1	43	0	120	3.98791343800076	0	0	0
373	1	92	36	0	46	0	122	0.877145294998627	1	0	0
374	0	117	46	1	45	0	120	0.833037022001008	1	0	0
375	0	27	22	1	44	0	120	1.31943870900068	1	0	0
376	1	59	40	1	43	0	120	1.26502715600145	0	0	0
377	1	137	67	1	46	0	120	1.38875819500026	0	0	0
378	0	71	130	1	49	0	120	0.796982072999526	1	0	0
379	0	127	33	0	48	0	120	0.980212741000287	1	0	0
380	0	145	73	1	47	0	120	2.31597118100035	1	0	0
381	1	40	90	0	46	0	122	1.31680353499905	1	0	0
382	0	39	85	1	45	0	122	1.08725496199986	0	0	0
383	0	114	12	1	48	0	120	1.28315950700016	1	0	0
384	1	83	84	0	47	0	122	0.869887016999201	1	0	0
385	1	121	107	0	46	0	122	1.61932858799992	1	0	0
386	1	83	17	0	45	0	122	1.52801564100082	1	0	0
387	0	30	38	1	44	0	120	5.64917752700057	1	0	0
388	1	115	142	1	43	0	122	0.828085414999805	1	0	0
389	0	49	122	1	43	0	122	7.01064003899955	0	0	0
390	1	140	81	1	45	0	122	1.13937644500038	1	0	0
391	0	33	50	0	44	0	122	2.03042561000075	0	0	0
392	1	116	7	1	47	0	122	3.48985760599862	1	0	0
393	0	3	50	0	46	0	122	0.864504524000949	0	0	0
394	1	123	26	0	49	0	122	1.1808748200001	1	0	0
395	1	48	14	0	48	0	120	1.56437584999912	0	0	0
396	1	38	145	0	51	0	120	2.37203552200117	0	0	0
397	0	106	47	0	53	0	122	3.53061016700121	0	0	0
398	1	103	7	0	56	0	122	1.10309627999959	1	0	0
399	0	2	7	0	55	0	120	1.25037361699833	1	0	0
400	0	149	96	1	54	0	120	0.710717901998578	1	0	0
401	0	90	22	1	53	0	120	3.14471076399968	1	0	0
402	0	69	120	0	50	0	120	0.82665438299955	1	0	0
403	0	116	117	0	48	0	120	0.524581790999946	1	0	0
404	0	69	102	0	45	0	120	0.775724076000188	1	0	0
405	1	25	33	1	43	0	122	0.640590028999213	1	0	0
406	1	137	24	1	40	0	122	0.533850282999992	1	0	0
407	0	26	15	1	38	0	120	0.592809752000903	1	0	0
408	0	41	21	0	35	0	122	0.424625233001279	0	0	0
409	1	105	100	0	43	0	120	2.44067532199915	0	0	0
410	1	87	56	0	50	0	122	0.971107508999921	1	0	0
411	0	87	143	0	48	0	122	1.48338565599988	0	0	0
412	1	84	26	0	54	0	122	1.93383636800172	1	0	0
413	0	149	95	1	52	0	120	0.741634658001203	1	0	0
414	0	22	117	1	50	0	120	1.53542189699874	1	0	0
415	0	59	38	0	48	0	120	5.91995430499992	1	0	0
416	0	47	59	0	46	0	120	2.69579841400082	1	0	0
417	1	83	120	0	44	0	122	1.17645547500069	1	0	0
418	0	69	34	1	42	0	120	1.08901518099992	1	0	0
419	0	61	116	1	40	0	122	0.99595980399863	0	0	0
420	1	48	86	0	46	0	122	4.81186460699973	1	0	0
421	1	138	43	1	44	0	122	1.09075815899996	1	0	0
422	0	85	65	1	43	0	120	1.42321550700035	1	0	0
423	0	50	81	1	41	0	120	5.73989007300042	1	0	0
424	0	104	14	0	39	0	120	1.53984876399954	1	0	0
425	1	76	84	1	37	0	122	0.668372183001338	1	0	0
426	0	94	118	0	36	0	122	0.985654980999243	0	0	0
427	0	24	56	1	41	0	122	1.06564592999894	0	0	0
428	0	70	17	1	46	0	122	0.710419360999367	0	0	0
429	1	61	127	0	51	0	120	0.546839059999911	0	0	0
430	0	98	77	1	56	0	122	0.885026968999227	0	0	0
431	1	10	36	0	60	0	122	1.6726567909991	1	0	0
432	0	9	88	0	59	0	122	2.42747514999974	0	0	0
433	1	28	15	0	64	0	120	1.40690852700027	0	0	0
434	0	92	40	1	68	0	122	0.934595110998998	0	0	0
435	0	134	55	0	73	0	120	1.04833664000034	1	0	0
436	1	84	21	0	71	0	122	0.813869909999994	1	0	0
437	0	99	73	1	70	0	122	0.868228916000589	0	0	0
438	1	118	130	1	74	0	120	2.05686040100045	0	0	0
439	0	54	46	1	79	0	120	1.72454640599972	1	0	0
440	1	139	30	1	77	0	122	0.740312850999544	1	0	0
441	0	18	9	0	76	0	122	1.83060129499972	0	0	0
442	0	30	60	0	80	0	120	0.858901629999309	1	0	0
443	1	111	105	0	79	0	120	3.00043722400005	0	0	0
444	1	43	3	0	83	0	122	0.723055582000597	1	0	0
445	0	120	102	0	81	0	122	3.74955584700001	0	0	0
446	1	67	146	0	85	0	120	0.76870406099988	0	0	0
447	0	119	108	0	89	0	122	3.85849241200049	0	0	0
448	0	117	79	0	93	0	120	0.680984565999097	1	0	0
449	0	77	140	0	92	0	122	1.4790524050004	0	0	0
450	1	80	64	1	96	0	122	1.00129358800041	1	0	0
451	1	112	22	0	94	0	120	1.64121735199842	0	0	0
452	0	10	96	1	98	0	120	2.38084692399934	1	0	0
453	0	38	38	0	97	0	122	0.961803865999173	0	0	0
454	0	17	111	1	100	0	120	2.04225954200047	1	0	0
455	0	66	114	1	99	0	122	1.42202304099919	0	0	0
456	0	29	21	1	103	0	120	0.814919124999506	1	0	0
457	0	43	60	0	102	0	120	0.746760545000143	1	0	0
458	1	23	40	1	101	0	120	0.9807296759991	0	0	0
459	1	113	82	1	104	0	120	1.39730619300099	0	0	0
460	0	100	87	0	107	0	122	1.21167238800081	0	0	0
461	0	12	148	0	111	0	122	1.10636271399926	0	0	0
462	0	100	5	0	114	0	120	2.21252822299903	1	0	0
463	0	115	5	0	113	0	120	1.20877388900044	1	0	0
464	1	47	62	1	112	0	122	0.952096304001316	1	0	0
465	0	41	48	0	111	0	120	0.721213229999194	1	0	0
466	1	125	145	0	110	0	122	1.57177479599886	1	0	0
467	0	96	144	1	109	0	120	1.18612687799941	1	0	0
468	1	13	13	1	108	0	120	0.849281808999876	0	0	0
469	0	27	103	1	111	0	120	0.687604413998997	1	0	0
470	0	44	144	1	110	0	120	2.24301544700029	1	0	0
471	0	35	99	1	109	0	120	0.997413960998529	1	0	0
472	1	113	148	0	108	0	122	1.8455950839998	1	0	0
473	0	122	9	0	107	0	122	0.928420766000272	0	0	0
474	0	107	122	0	109	0	122	2.84294599999885	0	0	0
475	0	110	37	0	113	0	122	1.70757740799854	0	0	0
476	1	109	64	1	115	0	120	0.748944123999536	0	0	0
477	0	103	11	0	118	0	122	0.606566149999708	0	0	0
478	1	21	51	1	121	0	122	0.830004456000097	1	0	0
479	0	72	133	0	120	0	120	0.787818806000359	1	0	0
480	1	148	119	1	119	0	120	1.30040735900002	0	0	0
481	1	13	80	0	122	0	120	0.599148802000855	0	0	0
482	0	18	92	1	125	0	122	1.07131157000003	0	0	0
483	0	131	79	1	128	0	120	0.931251653999425	1	0	0
484	1	40	58	1	127	0	120	5.74984951900115	0	0	0
485	0	133	82	0	130	0	122	0.757074600000124	0	0	0
486	0	40	115	0	133	0	120	14.1981282739998	1	0	0
487	0	86	49	1	132	0	120	3.75356557099985	1	0	0
488	0	53	136	0	131	0	122	1.81299010799921	0	0	0
489	1	24	7	0	133	0	122	1.32113473299978	1	0	0
490	1	68	51	0	132	0	122	1.02727844600122	1	0	0
491	0	9	133	0	132	0	120	0.600598540999272	1	0	0
492	1	50	65	0	131	0	122	1.2412050210005	1	0	0
493	0	66	53	1	130	0	120	1.00563232900095	1	0	0
494	1	88	56	1	129	0	122	4.81194410100034	1	0	0
495	0	134	111	0	128	0	120	1.42684739900142	1	0	0
496	0	29	68	1	127	0	120	0.792259214998921	1	0	0
497	0	8	79	1	126	0	120	2.2957159000016	1	0	0
498	1	51	99	0	125	0	122	1.75215317400034	1	0	0
499	0	22	84	1	125	0	122	4.03914536699995	0	0	0
500	0	116	119	0	127	0	120	0.958671295999011	1	0	0
