Trial	Gender_Face1	Face1_nb	Face2_nb	Right_left_flip	Nb_Bubbles	Overlap_Target	Response	RT	Accuracy	Simi2Target	Trial_Reward
1	0	40	26	0	53	0	122	1.32492728400393	1	0.0519241133680843	10.2777223170449
2	0	2	24	1	50	0	122	0.928429880004842	1	0.061694644584954	10.3478437490739
3	0	117	56	1	48	0	122	1.13888702398981	1	0.065636378266151	10.409677003319
4	1	2	28	1	45	0	120	0.833842071995605	1	0.0571742106167865	10.5317515270736
5	0	16	59	0	43	0	122	0.862314183992567	1	0.050517118161543	10.6375143482975
6	0	103	137	0	40	0	122	0.937798519007629	1	0.0708269493372489	10.8430184702156
7	0	111	12	0	38	0	122	0.880581386998529	1	0.0171323324555408	0
8	1	31	69	1	35	0	120	0.923157676006667	1	0.0231791466689309	0
9	0	81	66	1	33	0	122	0.82085995702073	1	0.0487906941782276	11.6438897945462
10	0	136	128	0	30	0	122	0.961228915984975	1	0.0630596450740914	12.1947838360194
11	1	114	84	1	28	0	122	1.42411151999841	0	0.0378915272871376	-25.3274825241235
12	1	135	129	0	36	0	120	0.84281890897546	1	0.015780752392721	0
13	0	8	125	0	33	0	122	0.815771531983046	1	0.0917839240744623	11.6438897945462
14	1	74	70	1	31	0	120	2.17942674399819	1	0.0694804662248869	11.9928937619321
15	1	146	97	0	29	0	120	0.747189396002796	1	0.0536077624627815	12.4176125654648
16	0	90	1	1	27	0	122	0.801238421991002	1	0.0243408643690339	0
17	0	41	50	0	24	0	122	1.23174512397964	1	0.0177575982468535	0
18	1	3	139	0	22	0	120	1.30666813199059	1	0.0263774920911111	14.8156460292092
19	1	125	57	1	20	0	122	0.996837181010051	0	0.0253238435834318	-31.8195092369016
20	1	97	106	0	26	0	120	2.00224535699817	1	0.0912756203823155	13.2371361035193
21	0	86	61	0	24	0	122	0.806218270998215	1	0.0574831174445268	13.942099533704
22	0	123	81	1	22	0	120	1.56321024900535	0	0.00105633184377984	-0
23	1	43	138	1	29	0	122	0.707144565007184	0	0.0374641056337472	-24.8352251309296
24	0	45	114	1	34	0	122	0.698394801001996	1	0.0964892180154112	11.4933327992393
25	0	93	147	0	33	0	122	2.31602749999729	1	0.0256861261286422	11.6438897945462
26	1	103	54	1	31	0	122	3.06080220997683	0	0.0367329911953051	-23.9857875238642
27	1	63	63	1	36	0	120	0.711520659009693	1	0.0263753146117719	11.2328909210242
28	0	48	95	1	34	0	122	0.920780544984154	1	0.068782935776511	11.4933327992393
29	0	47	59	1	33	0	122	0.968349332979415	1	0.0526514133111544	11.6438897945462
30	1	48	124	0	31	0	122	2.82345569401514	0	0.0213942985649366	-0
31	1	89	24	0	36	0	120	0.676161557988962	1	0.0157955631575476	0
32	1	84	33	0	34	0	120	0.631300089997239	1	0.0459942782429061	11.4933327992393
33	1	10	100	0	33	0	120	1.34640946699074	1	0.0136254129918594	0
34	0	113	149	0	31	0	120	0.666882810008246	0	0.0429945093613456	-23.9857875238642
35	0	28	25	1	36	0	122	1.25433606098522	1	0.037537175473173	11.2328909210242
36	1	87	22	0	34	0	122	1.48887964998721	0	0.00531249318916551	-0
37	1	117	79	0	39	0	120	0.826116211974295	1	0.038733604497013	10.9265244157653
38	1	8	108	1	38	0	122	1.12834231802844	0	0.0768750015101782	-22.0375174668248
39	1	145	73	1	42	0	120	0.590534286980983	1	0.0660285425168142	10.6991829678433
40	1	66	99	0	41	0	120	1.52336642198497	1	0.0637930933529567	10.7674714275007
41	0	97	114	0	39	0	122	0.971628261002479	1	0.0316389062516397	10.9265244157653
42	1	146	84	0	38	0	122	0.97872823299258	0	0.0629219837170156	-22.0375174668248
43	1	138	21	0	42	0	120	0.584753770002862	1	0.0714570037014076	10.6991829678433
44	1	47	107	0	40	0	120	0.558185538975522	1	0.0653209326046756	10.8430184702156
45	1	7	125	0	39	0	120	0.899976179003716	1	0.0232375243540512	0
46	1	81	58	0	38	0	122	1.17439701297553	0	0.0395126616820567	-22.0375174668248
47	0	56	106	1	42	0	122	0.716072795010405	1	0.0229467351089418	0
48	1	136	125	0	40	0	120	1.53231119099655	1	0.0500037111487081	10.8430184702156
49	0	60	101	0	39	0	122	0.700527228997089	1	0.102439169438165	10.9265244157653
50	1	79	17	0	38	0	120	0.596644459001254	1	0.0724959471571705	11.0187587334124
51	0	32	141	1	36	0	122	0.833966400008649	1	0.0324759704287671	11.2328909210242
52	1	90	26	1	35	0	120	1.37534879901796	1	0.0501315221706344	11.3567614963619
53	1	31	67	0	34	0	120	1.27760655499878	1	0.0258205335897904	11.4933327992393
54	0	64	50	0	33	0	120	1.41514870201354	0	0.0150352856293201	-0
55	0	46	70	1	36	0	122	1.21989594501792	1	0.0237857539984961	0
56	1	14	79	0	35	0	122	1.13756385297165	0	0.0537895243448245	-22.7135229927238
57	0	81	42	1	39	0	122	1.60896549900644	1	0.0146471070109738	0
58	1	32	60	0	37	0	120	1.0458577350073	1	0.0764247806079225	11.1205689162718
59	1	102	50	0	36	0	120	1.51269683201099	1	0.0219275409418491	0
60	0	135	114	0	35	0	120	3.13008864500443	0	0.018517540267798	-0
61	1	82	35	0	39	0	120	0.627708640997298	1	0.0255569453707651	10.9265244157653
62	1	54	131	0	37	0	120	0.672045424988028	1	0.0351540913413253	11.1205689162718
63	1	117	115	0	36	0	120	0.673459163983352	1	0.047070880195623	11.2328909210242
64	0	140	46	1	35	0	120	1.14718012500089	0	0.115866545817823	-22.7135229927238
65	0	32	120	0	38	0	122	1.4908585799858	1	0.0847167071188158	11.0187587334124
66	1	110	3	1	37	0	122	2.45243283497985	0	0.0434268157673573	-22.2411378325436
67	1	2	38	1	41	0	120	1.5111166620045	1	0.054848169966958	10.7674714275007
68	0	16	96	0	40	0	120	1.22318075099611	0	0.0475063977591893	-21.6860369404312
69	0	3	96	1	43	0	122	0.715032174019143	1	0.088862222091016	10.6375143482975
70	0	64	28	0	42	0	122	0.99447934498312	1	0.0484835085828506	10.6991829678433
71	0	23	97	0	41	0	122	4.59342174598714	1	0.0576394689297263	10.7674714275007
72	0	119	94	1	40	0	122	0.959003815019969	1	0.0222555377542087	0
73	0	137	125	1	39	0	122	0.773973862989806	1	0.0965772110055633	10.9265244157653
74	1	94	41	1	38	0	122	1.08331397100119	0	0.0109385835514173	-0
75	1	146	135	0	41	0	122	1.14125900398358	0	0.0259215690365492	-21.5349428550014
76	1	52	60	0	44	0	120	0.83729124700767	1	0.0366547811769695	10.5818819156885
77	0	117	78	0	43	0	122	0.0895375029940624	1	0.0417249802127804	10.6375143482975
78	0	119	25	0	42	0	122	1.10722134399111	1	0.0282672924380286	10.6991829678433
79	1	43	73	1	41	0	120	0.866309551987797	1	0.0530731193452497	10.7674714275007
80	0	80	23	1	40	0	122	0.708351156994468	1	0.0636635865536043	10.8430184702156
81	0	94	32	0	39	0	122	0.892946431005839	1	0.0497455594768787	10.9265244157653
82	1	88	112	1	38	0	120	0.993504063982982	1	0.0522909468192466	11.0187587334124
83	0	29	20	1	37	0	122	0.674348528002156	1	0.0503330702850011	11.1205689162718
84	1	23	93	0	36	0	120	0.949877195002045	1	0.0604130839448755	11.2328909210242
85	1	102	62	0	35	0	120	0.715576452988898	1	0.0550920297013292	11.3567614963619
86	0	39	139	1	34	0	122	1.41342311599874	1	0.102693238308034	11.4933327992393
87	1	80	3	0	33	0	120	0.686186842998723	1	0.0528020251238188	11.6438897945462
88	1	67	61	0	32	0	120	1.28216142501333	1	0.0690146353257532	11.8098710579033
89	0	22	130	1	31	0	122	0.836037794011645	1	0.0313967915761625	11.9928937619321
90	1	125	84	1	31	0	120	1.1370934950246	1	0.0489050497608361	11.9928937619321
91	1	137	83	1	30	0	120	0.688539836002747	1	0.0519274883634839	12.1947838360194
92	0	81	75	0	29	0	122	0.886913395021111	1	0.106110830965676	12.4176125654648
93	0	136	30	1	28	0	122	1.39541122299852	1	0.0637879391163743	12.6637412620617
94	0	112	61	0	27	0	122	0.831509312003618	1	0.0480033675842115	12.935876128632
95	0	6	133	0	27	0	120	1.27630295298877	0	0.000124925334116165	-0
96	0	25	120	0	29	0	122	2.0949260990019	1	0.0611733240598653	12.4176125654648
97	0	64	62	0	28	0	122	0.808429210010218	1	0.0584021518195569	12.6637412620617
98	0	16	64	1	27	0	122	1.81174101997749	1	0.0359819458360824	12.935876128632
99	1	104	16	0	27	0	122	0.792379612015793	0	0.123388680644728	-25.871752257264
100	0	107	111	0	29	0	120	2.71805182300159	0	0.0542827569468669	-24.8352251309296
101	0	8	84	1	29	0	120	1.59665155402035	0	0.0401322298461232	-24.8352251309296
102	1	109	23	1	37	0	122	0.892422849021386	0	0.021291607123298	-0
103	1	6	124	0	44	0	120	0.880744291993324	1	0.0100211640447403	0
104	1	32	23	1	41	0	120	0.812332986999536	1	0.0717779486259395	10.7674714275007
105	0	50	75	1	39	0	120	2.5442987360002	0	0.0184978960443738	-0
106	0	83	52	0	46	0	122	1.48885513001005	1	0.027222920151389	10.4866337303374
107	0	114	113	0	44	0	122	1.76988587999949	1	0.0832200604350969	10.5818819156885
108	1	53	149	1	42	0	120	1.00903517898405	1	0.0374602368666201	10.6991829678433
109	0	104	123	0	40	0	122	1.58066476101521	1	0.0212488043183403	0
110	1	68	112	1	38	0	120	0.675437391997548	1	0.0715135282862762	11.0187587334124
111	1	133	1	0	36	0	120	1.1895559259865	1	0.0307623072924166	11.2328909210242
112	1	14	46	0	34	0	122	0.844037513015792	0	0.067186500953546	-22.9866655984786
113	1	34	4	0	40	0	120	1.38289003298269	1	0.0194467516619356	0
114	0	131	17	1	38	0	122	0.908433324017096	1	0.111988068005489	11.0187587334124
115	0	95	110	1	36	0	122	1.14190378200146	1	0.00908669624344806	0
116	0	66	31	1	35	0	122	0.780946401995607	1	0.0648753743885953	11.3567614963619
117	1	75	100	1	33	0	120	0.787163672997849	1	0.0245410762086734	0
118	0	115	118	1	31	0	122	1.92064029397443	1	0.0570923185208257	11.9928937619321
119	0	45	77	1	29	0	122	1.2108915830031	1	0.0597934997190992	12.4176125654648
120	0	65	74	1	28	0	122	0.806729855015874	1	0.0377586732548236	12.6637412620617
121	1	130	36	0	26	0	120	0.898364159016637	1	0.0511730944227963	13.2371361035193
122	0	82	84	0	24	0	120	1.01228066399926	0	0.000341627330635693	-0
123	0	132	141	0	29	0	120	0.625289185001748	0	0.0665948251329059	-24.8352251309296
124	1	6	28	1	34	0	120	0.884326688013971	1	0.0452856452718303	11.4933327992393
125	0	24	117	1	33	0	122	0.735552723985165	1	0.021587723690131	0
126	1	90	75	1	31	0	120	0.775798681017477	1	0.0335457989751849	11.9928937619321
127	1	73	99	1	29	0	120	0.702226419001818	1	0.0889337104288155	12.4176125654648
128	0	54	114	0	28	0	120	1.86198336200323	0	0.0986153800827321	-25.3274825241235
129	0	102	41	1	33	0	122	1.02626750300988	1	0.0402242336208464	11.6438897945462
130	0	76	147	0	31	0	122	1.29310360600357	1	0.0357329566590681	11.9928937619321
131	0	21	43	0	30	0	122	0.950927478988888	1	0.0770389158760564	12.1947838360194
132	1	7	19	0	28	0	120	0.973503011016874	1	0.0344516600908997	12.6637412620617
133	0	7	141	1	27	0	122	1.06025842198869	1	0.0143029755726195	0
134	0	8	82	0	25	0	122	0.807332005002536	1	0.0352312156176272	13.5711373780283
135	1	22	100	1	24	0	122	0.796047743991949	0	0.0645878707054164	-27.884199067408
136	0	34	73	0	28	0	122	0.914200414990773	1	0.0785354891996677	12.6637412620617
137	1	105	127	0	27	0	122	1.52139291199273	0	0.0247933116320048	-0
138	0	91	72	1	31	0	122	0.818433695007116	1	0.0537717574146843	11.9928937619321
139	1	45	36	1	30	0	120	1.33519686901127	1	0.0265572899452938	12.1947838360194
140	0	33	139	1	28	0	122	0.678383029007819	1	0.0250526667549434	12.6637412620617
141	1	18	24	0	27	0	120	0.96936052601086	1	1.63148697504694e-05	0
142	0	15	132	0	26	0	122	1.54338899799041	1	0.0547892732954953	13.2371361035193
143	1	93	37	0	25	0	120	3.35811233698041	1	0.0163176040482666	0
144	0	78	91	1	23	0	122	0.878171149990521	1	0.0680753801165248	14.3549800010502
145	0	19	25	0	22	0	120	0.993142413994065	0	0.0554107224426884	-29.6312920584185
146	0	78	42	0	26	0	122	0.65376423500129	1	0.00458211967218181	0
147	1	92	30	1	25	0	120	0.712262000015471	1	0.0204409302419278	0
148	1	108	27	0	23	0	120	0.834577230998548	1	0.0745960609866737	14.3549800010502
149	0	29	131	1	22	0	120	2.06201775599038	0	0.101451499877098	-29.6312920584185
150	1	42	128	1	26	0	120	2.67229712501285	1	0.0458543481284701	13.2371361035193
151	0	47	14	1	25	0	122	0.787425999995321	1	0.0240542181571225	0
152	1	3	146	0	23	0	120	0.945377959986217	1	0.0361472298102482	14.3549800010502
153	0	91	118	0	22	0	122	1.25541256499127	1	0.000210135260022424	0
154	0	149	21	0	21	0	122	0.923714150994783	1	0.0974903010619599	15.3310969341241
155	1	67	143	0	20	0	120	0.859936226013815	1	0.0829976538795467	15.9097546184508
156	0	127	24	1	19	0	120	0.742293327988591	0	0.0446257003690925	-33.1236962368761
157	1	48	46	0	22	0	122	1.32563757000025	0	0.035229088857544	-29.6312920584185
158	0	54	133	0	25	0	122	1.38031787099317	1	0.0993042278707702	13.5711373780283
159	1	125	30	0	24	0	120	0.859376012987923	1	0.0514462828115113	13.942099533704
160	1	122	63	0	23	0	120	0.812863978993846	1	0.0254770890189959	14.3549800010502
161	0	22	97	1	22	0	120	1.01117534699733	0	0.0620357129990703	-29.6312920584185
162	0	20	10	0	25	0	120	1.19842105600401	0	0.0164636901520448	-0
163	0	29	108	1	28	0	122	2.65185685001779	1	0.0870646015894994	12.6637412620617
164	0	21	28	1	27	0	122	1.23203976699733	1	0.0475747537870526	12.935876128632
165	1	142	127	0	26	0	122	1.97173905899399	0	0.02844747915373	-26.4742722070386
166	0	60	88	1	30	0	122	1.52878556700307	1	0.0406852509468625	12.1947838360194
167	1	8	89	0	29	0	120	1.06594088699785	1	0.0180033097864687	0
168	0	90	3	1	28	0	122	0.883882622001693	1	0.0448420858733993	12.6637412620617
169	1	45	133	1	27	0	120	0.798758928023744	1	0.0475225026759081	12.935876128632
170	0	147	97	0	26	0	122	1.01984956499655	1	0.0792267052711256	13.2371361035193
171	1	30	141	1	25	0	122	1.37700383301126	0	0.0465399978135991	-27.1422747560566
172	0	49	25	0	27	0	122	0.982229499990353	1	0.0444094165251468	12.935876128632
173	0	58	89	0	26	0	120	1.45288847497432	0	0.0246313173434214	-0
174	1	46	131	1	29	0	122	2.31200164399343	0	0.013288669427078	-0
175	0	87	49	1	32	0	120	4.38534328498645	0	0.0590323727411517	-23.6197421158065
176	1	146	54	0	35	0	122	1.35886495799059	0	0.0752848366815856	-22.7135229927238
177	1	20	146	1	38	0	122	1.01250290297321	0	0.0639455474858212	-22.0375174668248
178	1	1	114	1	41	0	120	1.36882031999994	1	0.107934259885135	10.7674714275007
179	1	3	92	0	40	0	120	1.75289840600453	1	0.0700032387184014	10.8430184702156
180	0	142	14	1	39	0	122	1.16718021300039	1	0.0635728190533183	10.9265244157653
181	0	148	101	0	38	0	120	1.11033388102078	0	0.0177442304752874	-0
182	0	80	42	0	41	0	120	0.93530003799242	0	0.0582231111464295	-21.5349428550014
183	1	78	75	1	44	0	120	1.07064006300061	1	0.0605105498983702	10.5818819156885
184	1	124	108	1	43	0	122	1.91385856698616	0	0.0919629005278021	-21.275028696595
185	0	2	111	1	46	0	122	1.46748869400471	1	0.0657478948710949	10.4866337303374
186	1	92	93	0	45	0	120	0.892639077996137	1	0.0451925837750387	10.5317515270736
187	1	15	9	1	44	0	122	1.50282824799069	0	0.0571570291633006	-21.1637638313771
188	0	93	38	0	47	0	122	0.744762607006123	1	0.0609260167253117	10.4460795824527
189	1	130	92	1	46	0	120	0.943227904994274	1	0.0159825206339459	0
190	1	150	37	0	45	0	120	2.83111830402049	1	0.044757285818657	10.5317515270736
191	1	87	98	0	44	0	120	1.85042368198629	1	0.0509137024532652	10.5818819156885
192	0	53	41	0	43	0	122	0.982529458997305	1	0.0729144791674218	10.6375143482975
193	0	61	133	1	42	0	122	1.38106700000935	1	0.0366507735423152	10.6991829678433
194	0	60	48	0	41	0	122	1.29886933998205	1	0.0496169195511452	10.7674714275007
195	1	146	66	0	40	0	122	1.38742903500679	0	0.0195314729609142	-0
196	1	56	7	0	43	0	120	1.57712947900291	1	0.0216626005695212	0
197	0	19	112	1	42	0	122	0.808328001003247	1	0.0804910283926618	10.6991829678433
198	0	63	25	0	41	0	120	1.03683214500779	0	0.0903730031163706	-21.5349428550014
199	0	131	119	0	44	0	122	1.12164299900178	1	0.0417500563461281	10.5818819156885
200	0	42	140	0	43	0	122	1.32094705602503	1	0.0564340479895933	10.6375143482975
201	1	2	119	0	43	0	120	1.43228109800839	1	0.0605201354142717	10.6375143482975
202	1	145	127	1	40	0	120	1.08906576401205	1	0.0634420492352393	10.8430184702156
203	0	9	101	0	38	0	122	1.60320090100868	1	0.041328458887983	11.0187587334124
204	1	52	13	0	35	0	122	2.4170132180152	0	0.0407074528701508	-22.7135229927238
205	1	150	72	0	43	0	120	0.790446986007737	1	0.105634316005425	10.6375143482975
206	1	91	49	1	41	0	122	1.22068080399185	0	0.046846770409979	-21.5349428550014
207	1	50	147	0	48	0	122	2.79221594499541	0	0.0365814577564677	-20.8193540066379
208	0	95	144	0	55	0	122	0.869297377008479	1	0.0442973624007961	10.2429096908112
209	0	15	109	1	53	0	122	0.896898881997913	1	0.0654676198640278	10.2777223170449
210	0	72	20	0	51	0	122	0.657577098987531	1	0.0650047438125947	10.3217462999684
211	0	6	117	0	49	0	122	1.66934939500061	1	0.143221361881367	10.3770475798729
212	1	67	77	1	47	0	120	0.695448593993206	1	0.0956361909982029	10.4460795824527
213	0	10	91	1	45	0	120	1.0798875479959	0	0.105669543906494	-21.0635030541472
214	0	53	117	1	51	0	122	0.98739996299264	1	0.0623650979991444	10.3217462999684
215	0	66	130	0	49	0	122	1.95946712401928	1	0.0955879068214443	10.3770475798729
216	0	105	34	1	47	0	122	1.47185599801014	1	0.0595657545982157	10.4460795824527
217	0	75	61	0	45	0	122	0.776425596995978	1	0.0422608123128696	10.5317515270736
218	0	96	5	1	43	0	122	0.918826403009007	1	0.0137846072766471	0
219	0	23	37	1	42	0	122	1.37500812800135	1	0.0810698095643984	10.6991829678433
220	1	20	129	1	40	0	122	2.04528477301938	0	0.0610032146392659	-21.6860369404312
221	0	69	16	1	45	0	122	0.80107727900031	1	0.045556600208605	10.5317515270736
222	0	87	67	0	43	0	122	0.958526219998021	1	0.0691157853170985	10.6375143482975
223	1	138	116	1	42	0	120	1.37219330199878	1	0.0280487072053601	10.6991829678433
224	0	89	130	1	40	0	122	0.971675294014858	1	0.0293965895811722	10.8430184702156
225	1	1	116	0	38	0	120	1.31356528200558	1	0.0146690021803122	0
226	0	119	112	1	37	0	122	3.59379793799599	1	0.0546329788551725	11.1205689162718
227	0	84	96	0	35	0	122	1.4158078180044	1	0.050384291433347	11.3567614963619
228	1	106	41	0	33	0	120	1.29989478900097	1	0.0320350669033212	11.6438897945462
229	1	46	63	0	32	0	122	2.02890179399401	0	0.0207999366754569	-0
230	0	149	28	1	37	0	122	1.1455791760236	1	0.0588890666309915	11.1205689162718
231	1	77	26	1	35	0	122	1.26494830101728	0	0.0718401810360067	-22.7135229927238
232	1	29	23	0	40	0	122	2.38026872300543	0	0.0164906209850043	-0
233	1	137	82	0	44	0	120	1.79447451999295	1	0.0527283385581374	10.5818819156885
234	0	71	85	0	43	0	122	1.7996201920032	1	0.0550548393838806	10.6375143482975
235	0	113	42	0	41	0	122	1.28412104400923	1	0.0945829178384352	10.7674714275007
236	1	87	32	0	40	0	120	1.63122175101307	1	0.070879849501064	10.8430184702156
237	1	78	47	0	38	0	120	0.751148442999693	1	0.0767384179230645	11.0187587334124
238	1	135	143	1	37	0	120	1.06524925201666	1	0.0378086282447016	11.1205689162718
239	1	38	56	0	36	0	120	0.796226114005549	1	0.0774053614463497	11.2328909210242
240	0	88	66	0	34	0	122	1.91438770500827	1	0.0528486261275406	11.4933327992393
241	0	2	141	1	33	0	122	1.57795675098896	1	0.0214588237426091	0
242	1	80	43	0	32	0	120	1.87233232302242	1	0.00716471296094447	0
243	1	128	141	1	30	0	120	0.796039517997997	1	0.0718274922839364	12.1947838360194
244	1	80	78	1	29	0	122	1.46381784402183	0	0.0294505330582987	-24.8352251309296
245	0	97	113	0	33	0	122	1.60427443997469	1	0.012657144282904	0
246	1	73	139	0	32	0	122	1.576959678001	0	0.0909183306045867	-23.6197421158065
247	1	68	128	1	35	0	120	0.798810317995958	1	0.116660450319254	11.3567614963619
248	1	27	4	0	34	0	120	0.843084763007937	1	0.0352102501842635	11.4933327992393
249	1	98	1	1	33	0	120	0.638191603007726	1	0.0361481977063441	11.6438897945462
250	0	30	113	0	32	0	120	1.20234890899155	0	0.0390069605204695	-23.6197421158065
251	0	110	52	0	35	0	122	1.00743012400926	1	0.109105765471304	11.3567614963619
252	0	83	149	0	34	0	122	1.22026373600238	1	0.0429839316720223	11.4933327992393
253	1	44	6	1	33	0	122	1.16795160801848	0	0.0532589502043772	-23.2877795890924
254	0	137	48	0	36	0	122	1.02357485101675	1	0.0324353015035195	11.2328909210242
255	0	102	55	0	35	0	120	2.0349074099795	0	0.0570552055733094	-22.7135229927238
256	0	57	40	0	39	0	122	1.75109241000609	1	0.0406579633539532	10.9265244157653
257	0	99	140	1	38	0	122	0.934834587009391	1	0.0307764622980255	11.0187587334124
258	0	76	40	1	37	0	122	0.902545983990422	1	0.0463391158824047	11.1205689162718
259	1	54	96	1	35	0	120	0.912953061022563	1	0.0320992712011583	11.3567614963619
260	0	142	26	1	34	0	122	0.99246136500733	1	0.0729903006291056	11.4933327992393
261	0	71	42	1	33	0	122	1.50134455299121	1	0.0613952518830563	11.6438897945462
262	0	130	34	1	32	0	122	1.31921739998506	1	0.0538901188947694	11.8098710579033
263	0	132	55	0	31	0	122	1.48033749300521	1	0.0523769027659807	11.9928937619321
264	1	23	40	0	30	0	122	1.57793997199042	0	0.0362094320390008	-24.3895676720387
265	1	124	54	0	33	0	120	1.3191004699911	1	0.065514843337963	11.6438897945462
266	1	60	1	1	32	0	120	1.42938569700345	1	0.0522591158624993	11.8098710579033
267	1	31	138	1	31	0	120	1.11669040497509	1	0.0998626691917976	11.9928937619321
268	0	71	97	1	30	0	122	1.21259877298144	1	0.125493688353577	12.1947838360194
269	0	28	38	0	29	0	120	1.18482268898515	0	0.0961670848251373	-24.8352251309296
270	1	128	74	1	32	0	120	1.40038506497513	1	0.032205701071921	11.8098710579033
271	1	70	111	1	31	0	120	0.941516043007141	1	0.0356145888016575	11.9928937619321
272	1	82	73	1	30	0	120	0.867513671022607	1	0.028804496594725	12.1947838360194
273	0	7	93	1	29	0	122	0.999698852014262	1	0.0442239176556989	12.4176125654648
274	1	15	35	0	29	0	120	1.00423893099651	1	0.0900325070946609	12.4176125654648
275	1	150	58	0	28	0	122	1.36206296598539	0	0.00229428450504649	-0
276	1	43	66	0	30	0	120	1.02445230798912	1	0.0481550396227527	12.1947838360194
277	1	39	134	1	29	0	120	0.860952918010298	1	0.0258243189506091	12.4176125654648
278	1	81	108	1	28	0	120	0.959890683996491	1	0.0442262371067016	12.6637412620617
279	1	71	36	1	28	0	120	1.82913498202106	1	0.0505549803815217	12.6637412620617
280	0	10	107	1	27	0	122	1.82487794500776	1	0.0861052810668869	12.935876128632
281	1	49	104	0	26	0	122	1.43721554099466	0	0.0440877356125541	-26.4742722070386
282	0	94	119	0	28	0	122	0.994018548983149	1	0.101230992408977	12.6637412620617
283	1	18	104	0	28	0	120	0.830725576000987	1	0.00752475074752292	0
284	1	33	95	0	27	0	120	2.48363482899731	1	0.0567785649745224	12.935876128632
285	0	74	74	0	26	0	122	1.18946892599342	1	0.0235595066214232	0
286	1	128	148	1	25	0	120	1.04298202300561	1	0.0708012072051835	13.5711373780283
287	0	29	31	0	24	0	122	1.28617456697975	1	0.021550350751521	0
288	1	1	11	0	23	0	122	1.28091978598968	0	0.0143322270463293	-0
289	1	89	93	0	26	0	120	1.67466151498957	1	0.0449510230262509	13.2371361035193
290	1	100	30	1	25	0	120	1.14960732101463	1	0.0397024181479898	13.5711373780283
291	0	31	115	1	24	0	122	0.924794938007835	1	0.0125613158953288	0
292	0	62	30	1	24	0	122	2.23025935000624	1	0.0606413458293324	13.942099533704
293	1	9	133	0	23	0	120	2.3299232100253	1	0.0167684939555152	0
294	1	132	1	1	22	0	120	0.849543994001579	1	0.0116326132885749	0
295	1	123	137	0	21	0	120	0.781739770027343	1	0.0351813035990435	15.3310969341241
296	1	145	51	1	21	0	120	1.05121824899106	1	0.081691685711798	15.3310969341241
297	1	142	127	0	20	0	120	0.797630173008656	1	0.0237795029876693	0
298	0	48	107	0	19	0	122	1.0678943299863	1	0.0233252311885376	0
299	1	35	103	0	18	0	122	2.10368227001163	0	0.0211239967200837	-0
300	1	112	39	0	21	0	120	0.640418984985445	1	0.04026576124404	15.3310969341241
301	0	100	140	0	21	0	120	1.33017429200117	0	0.0349684548598531	-30.6621938682482
302	0	18	122	1	29	0	122	1.19718530599494	1	0.111269940430105	12.4176125654648
303	0	132	5	1	26	0	122	1.31604838400381	1	0.0443168408497566	13.2371361035193
304	1	29	103	1	24	0	122	1.07024842497776	0	0.0595351191133464	-27.884199067408
305	0	57	124	1	31	0	120	1.60921214398695	0	0.0444372324629271	-23.9857875238642
306	1	90	29	1	38	0	120	0.837887295027031	1	0.0376238894463894	11.0187587334124
307	1	113	41	1	36	0	120	0.850219361018389	1	0.10133235595007	11.2328909210242
308	1	111	24	0	34	0	120	1.86088805098552	1	0.0481042867928749	11.4933327992393
309	0	63	97	0	32	0	122	0.975930127984611	1	0.0650129652748653	11.8098710579033
310	1	68	74	1	30	0	122	2.54209063798771	0	0.0554066902947024	-24.3895676720387
311	1	36	84	0	36	0	120	0.79728442200576	1	0.0638173710575754	11.2328909210242
312	1	115	45	0	34	0	120	1.56241096698795	1	0.0555202321898952	11.4933327992393
313	1	140	26	1	32	0	120	1.93666427998687	1	0.0347425825982628	11.8098710579033
314	0	56	126	0	31	0	122	1.90530811197823	1	0.061959661097797	11.9928937619321
315	1	45	33	1	29	0	122	1.99343674801639	0	0.0401422669694172	-24.8352251309296
316	0	118	30	1	34	0	120	1.88589111500187	0	0.0868699134347881	-22.9866655984786
317	0	16	78	0	39	0	122	0.872072237980319	1	8.42209597308945e-05	0
318	0	26	20	1	38	0	122	1.15508585798671	1	0.0362751556272468	11.0187587334124
319	0	41	131	1	36	0	122	1.00982478499645	1	0.0130153044693417	0
320	0	70	116	0	34	0	122	1.63191948400345	1	0.0623158535872439	11.4933327992393
321	1	118	6	1	33	0	122	1.37080229001003	0	0.082567939285295	-23.2877795890924
322	1	87	92	1	38	0	120	1.93806430499535	1	0.0543586383750207	11.0187587334124
323	0	22	5	1	36	0	120	3.24147319002077	0	0.0178179099318772	-0
324	1	57	53	1	41	0	120	0.918243257998256	1	0.0381605364443341	10.7674714275007
325	0	141	79	0	39	0	122	2.86161804298172	1	0.04653474939739	10.9265244157653
326	1	40	9	0	38	0	120	1.3216388039873	1	0.0750365604566352	11.0187587334124
327	1	41	99	1	36	0	122	1.44017438098672	0	0.0361185252121325	-22.4657818420483
328	1	105	140	0	41	0	120	2.89120253399597	1	0.0287156811763765	10.7674714275007
329	1	80	106	1	39	0	120	0.916623394005001	1	0.065528240713103	10.9265244157653
330	0	116	36	1	38	0	122	1.3186579470057	1	0.0089585867027808	0
331	1	22	133	0	37	0	120	0.861843527003657	1	0.0562514005515947	11.1205689162718
332	0	106	80	1	35	0	122	2.29032219300279	1	0.0327463535495574	11.3567614963619
333	0	36	89	0	34	0	122	0.827032928995322	1	0.0394929868870368	11.4933327992393
334	1	2	40	0	33	0	120	1.24744850801653	1	0.0268826575820271	11.6438897945462
335	1	30	110	1	31	0	122	1.89054267297615	0	0.0440707577768943	-23.9857875238642
336	0	17	139	0	35	0	122	1.30627417200594	1	0.11079772640717	11.3567614963619
337	1	28	44	0	34	0	120	0.732700448017567	1	0.0634183036630356	11.4933327992393
338	1	74	44	0	33	0	120	2.7228667140007	1	0.0481845530232236	11.6438897945462
339	0	70	77	0	31	0	122	1.01932820299407	1	0.0425065565966805	11.9928937619321
340	1	134	46	0	30	0	120	0.88052392998361	1	0.087701162335664	12.1947838360194
341	0	100	129	0	29	0	122	0.890526898001553	1	0.0698259156118924	12.4176125654648
342	0	13	105	0	28	0	120	1.02759197101113	0	0.0653888730485919	-25.3274825241235
343	0	79	84	0	31	0	122	1.55902852700092	1	0.0606210207996816	11.9928937619321
344	0	137	72	0	30	0	122	0.710414767003385	1	0.0126924030716874	0
345	1	138	116	1	29	0	120	0.717146412003785	1	0.0706975354142211	12.4176125654648
346	0	78	91	0	28	0	122	1.49590362000163	1	0.0121159024302025	0
347	0	96	91	0	27	0	120	4.00229191500694	0	0.0301484107599017	-25.871752257264
348	1	57	80	1	30	0	122	2.38265452699852	0	0.0356703996233933	-24.3895676720387
349	0	32	132	1	34	0	122	1.19712833498488	1	0.100870468681218	11.4933327992393
350	1	13	30	1	33	0	122	2.7061261270137	0	0.0519509201892203	-23.2877795890924
351	0	146	18	0	36	0	122	2.04393713601166	1	0.0610620305097051	11.2328909210242
352	1	70	80	0	35	0	122	1.06261201901361	0	0.092782724246796	-22.7135229927238
353	1	2	146	0	38	0	120	1.62568468399695	1	0.0437294661269221	11.0187587334124
354	1	90	7	0	37	0	120	0.68403953401139	1	0.0895170644299731	11.1205689162718
355	0	120	90	1	36	0	122	1.01443544900394	1	0.0447705548567209	11.2328909210242
356	1	91	106	1	35	0	122	2.70793426799355	0	0.0728537212569645	-22.7135229927238
357	1	64	70	1	38	0	122	1.62748577698949	0	0.0273215869842276	-22.0375174668248
358	1	80	103	0	41	0	120	1.67154598599882	1	0.0484882133586868	10.7674714275007
359	1	94	6	1	40	0	122	1.46640839902102	0	0.110732544275897	-21.6860369404312
360	1	56	4	1	43	0	122	1.32616403399152	0	0.0607352812222195	-21.275028696595
361	0	31	60	0	46	0	122	1.09331322001526	1	0.0329203814172791	10.4866337303374
362	1	147	66	0	45	0	120	1.59970393500407	1	0.106463970549808	10.5317515270736
363	1	150	36	1	44	0	120	1.15593114000512	1	0.0611026059422043	10.5818819156885
364	1	46	15	1	43	0	120	1.46698361099698	1	0.0479517731706906	10.6375143482975
365	0	97	59	1	42	0	122	1.58938997299992	1	0.107345045360005	10.6991829678433
366	0	56	113	0	41	0	120	1.26668830899871	0	0.048616073472421	-21.5349428550014
367	1	104	85	0	44	0	122	1.96438059798675	0	0.131323824655925	-21.1637638313771
368	0	47	3	0	47	0	122	1.49287216001539	1	0.0675258314079536	10.4460795824527
369	1	71	54	1	46	0	122	3.32471771698329	0	0.0660665349172441	-20.9732674606748
370	1	2	43	0	49	0	120	0.916868339991197	1	0.0539806993705541	10.3770475798729
371	1	142	123	1	48	0	120	1.34929494801327	1	0.0521899218221406	10.409677003319
372	1	73	61	0	47	0	120	1.63624523501494	1	0.056987261469404	10.4460795824527
373	0	96	150	1	46	0	122	0.801163557014661	1	0.0372183592668983	10.4866337303374
374	1	36	58	1	45	0	120	1.43024282800616	1	0.0360636315547133	10.5317515270736
375	0	39	70	0	44	0	122	1.71354742799303	1	0.13540329562135	10.5818819156885
376	1	10	46	0	43	0	120	0.843794550019084	1	0.0395527550197743	10.6375143482975
377	0	99	28	1	42	0	122	1.33351442799903	1	0.049502174597088	10.6991829678433
378	0	47	67	1	41	0	122	1.57456571701914	1	0.0742297403024478	10.7674714275007
379	0	49	18	0	41	0	122	1.61153493798338	1	0.05536396630001	10.7674714275007
380	1	57	56	0	40	0	120	0.704241852014093	1	0.0425067483411914	10.8430184702156
381	0	114	66	0	39	0	120	6.32938072399702	0	0.0634709891128896	-21.8530488315306
382	0	62	45	0	41	0	120	1.64994747602032	0	0.0640064824960546	-21.5349428550014
383	1	6	95	0	44	0	120	0.74977089400636	1	0.10000132886672	10.5818819156885
384	1	5	143	0	43	0	120	0.884966917015845	1	0.0564700168156087	10.6375143482975
385	0	105	93	1	42	0	122	1.68656720998115	1	0.0465123626167563	10.6991829678433
386	1	41	38	1	42	0	120	1.49572941299994	1	0.0952543388691654	10.6991829678433
387	1	37	75	0	41	0	120	1.56928296198021	1	0.0445758510365572	10.7674714275007
388	0	140	140	1	40	0	122	2.52825268899323	1	0.0416840395728526	10.8430184702156
389	1	121	125	1	39	0	122	1.27265429002	0	0.0192794475934804	-0
390	0	43	20	1	41	0	122	1.12213112201425	1	0.085133953581732	10.7674714275007
391	0	19	7	0	41	0	122	1.09121518200845	1	0.0721426229999784	10.7674714275007
392	1	134	143	1	40	0	120	1.81139911498758	1	0.0589325496300423	10.8430184702156
393	1	43	137	0	39	0	122	1.06545761498273	0	0.0323795429019554	-21.8530488315306
394	1	117	119	1	41	0	122	1.60239383400767	0	0.0794943467265281	-21.5349428550014
395	1	126	79	1	44	0	120	1.29649985200376	1	0.0435438209742197	10.5818819156885
396	0	134	57	1	43	0	122	1.34553900701576	1	0.0872445420602776	10.6375143482975
397	1	97	79	0	42	0	120	1.58179510300397	1	0.0790384924228792	10.6991829678433
398	0	62	121	0	41	0	122	0.871475073014153	1	0.0564804050634108	10.7674714275007
399	1	130	1	0	41	0	120	1.32062926201615	1	0.0759710132838364	10.7674714275007
400	0	38	31	1	40	0	120	2.27388970099855	0	0.0847321259410585	-21.6860369404312
401	0	150	45	0	40	0	122	1.64730035301181	1	0.122483998500209	10.8430184702156
402	1	14	48	1	37	0	122	1.07900241902098	0	0.0817170930024286	-22.2411378325436
403	1	30	133	1	45	0	122	0.849283898016438	0	0.0457823484514979	-21.0635030541472
404	1	119	116	1	53	0	120	1.1826868619828	1	0.128395585587795	10.2777223170449
405	1	18	143	0	50	0	120	1.48485239400179	1	0.0366624856166839	10.3478437490739
406	0	48	78	0	48	0	122	1.19033379299799	1	0.069346326227673	10.409677003319
407	0	73	135	1	46	0	122	2.09528162001516	1	0.0753832658498942	10.4866337303374
408	1	97	60	0	44	0	122	1.01262221299112	0	0.0587218937327906	-21.1637638313771
409	1	28	24	0	51	0	120	0.856963196012657	1	0.0603280340139019	10.3217462999684
410	1	35	125	0	49	0	120	1.34659201701288	1	0.0563631448356551	10.3770475798729
411	0	5	140	0	47	0	122	0.802183535008226	1	0.0763868358763703	10.4460795824527
412	0	128	29	0	45	0	122	0.767181289003929	1	0.0847631721330301	10.5317515270736
413	1	53	110	0	43	0	120	0.877937062992714	1	0.0841882510813178	10.6375143482975
414	0	55	73	1	41	0	122	1.8329702540068	1	0.0957413761048992	10.7674714275007
415	0	104	110	0	39	0	122	0.908313324995106	1	0.0515417658825608	10.9265244157653
416	0	31	147	0	37	0	122	0.805533682985697	1	0.0751750205002418	11.1205689162718
417	0	82	104	0	35	0	122	0.817831477004802	1	0.0537410630245456	11.3567614963619
418	0	68	49	1	33	0	122	0.798330063000321	1	0.0557262716423198	11.6438897945462
419	0	41	96	1	32	0	122	0.795954369008541	1	0.0403092643845721	11.8098710579033
420	1	40	143	1	30	0	120	1.21700722101377	1	0.0273907499902421	12.1947838360194
421	0	20	133	1	28	0	122	1.13437221499044	1	0.0372017067571146	12.6637412620617
422	0	133	94	1	26	0	122	1.53420017298777	1	0.0468705698514018	13.2371361035193
423	0	48	78	1	25	0	122	1.86847281298833	1	0.00670161822830557	0
424	0	129	86	0	23	0	122	1.51997883900185	1	0.0848395414242399	14.3549800010502
425	0	117	110	1	21	0	122	1.24803566400078	1	0.0555367073127072	15.3310969341241
426	0	40	31	1	20	0	122	0.860580064007081	1	0.0401756770817967	15.9097546184508
427	1	141	86	1	18	0	120	0.870710380986566	1	0.0256375700457775	17.2999296765722
428	0	74	30	1	16	0	122	1.90592802900937	1	0.00259290416944913	0
429	0	83	44	1	15	0	122	1.82618867099518	1	0.0211924859412422	0
430	1	21	44	0	13	0	120	0.871378529991489	1	0.00756877024179646	0
431	1	58	53	1	12	0	122	0.882438227010425	0	0.00515881271255111	-0
432	0	47	91	1	16	0	122	1.4197453270026	1	0.00591455950882722	0
433	0	104	28	1	15	0	120	0.945131830987521	0	0.0874809412676935	-40.4145430652042
434	1	128	102	0	19	0	120	0.895603393000783	1	0.0209157560438945	0
435	0	117	39	0	18	0	122	1.12899041298078	1	0.042081890325782	17.2999296765722
436	1	117	132	1	16	0	120	1.77797959698364	1	0.0546157855875944	19.100372756683
437	1	116	143	1	15	0	120	0.926831251999829	1	0.0204668790278279	0
438	0	31	140	0	14	0	122	0.776641208998626	1	0.000512151860065812	0
439	1	57	111	1	12	0	122	1.79071096799453	0	0.00124554699370539	-0
440	0	8	68	1	16	0	122	2.05184848600766	1	0.0228416426468941	0
441	0	71	5	0	15	0	120	1.54313143598847	0	0.00883028786793595	-0
442	0	32	50	0	19	0	122	0.920266230998095	1	0.0201619860421419	0
443	0	33	115	0	18	0	122	1.36000103398692	1	0.0460263904443286	17.2999296765722
444	1	134	12	0	16	0	120	2.18224561799434	1	0.0473121905077728	19.100372756683
445	1	66	104	0	15	0	120	1.4049129600171	1	0.00639582119773669	0
446	0	64	118	1	14	0	122	1.69108447100734	1	0.0631820284526825	21.4925959486394
447	1	50	109	0	13	0	122	2.22041516000172	0	0.0277816105250331	-45.9979363481671
448	0	106	139	1	16	0	120	1.04859192101867	0	0.0499783610651607	-38.2007455133661
449	1	126	53	1	20	0	120	0.739344636996975	1	0.0575919975472572	15.9097546184508
450	1	91	84	1	19	0	120	1.00321674798033	1	0.035731264146454	16.561848118438
451	0	66	96	1	18	0	120	1.20036819801317	0	0.0326283066634012	-34.5998593531443
452	0	17	142	1	21	0	122	0.685495516023366	1	0.0847724950355405	15.3310969341241
453	0	16	98	0	20	0	122	1.55066908700974	1	0.0220926305629348	0
454	1	59	117	0	19	0	120	0.981915698997909	1	0.0212660183713374	0
455	0	78	89	0	18	0	122	1.38751481799409	1	0.0239907775817643	0
456	0	111	86	1	17	0	120	1.37033620200236	0	0.0727859061635437	-36.2791559407943
457	1	3	45	1	20	0	120	0.736325443984242	1	0.0430558973553137	15.9097546184508
458	1	84	127	1	19	0	122	1.11999461299274	0	0.0294452637059004	-33.1236962368761
459	1	5	120	1	22	0	120	1.56109977400047	1	0.0296164345488884	14.8156460292092
460	0	89	92	1	21	0	120	1.3440302190138	0	0.0274868835186651	-30.6621938682482
461	1	65	54	0	24	0	120	2.21550923402538	1	0.0448592427687127	13.942099533704
462	1	3	47	0	23	0	120	1.61875706797582	1	0.0422498277083954	14.3549800010502
463	1	75	23	0	22	0	120	0.848771798016969	1	0.0848843477618279	14.8156460292092
464	0	41	10	0	21	0	122	0.916537707991665	1	0.000417206751355019	0
465	0	126	42	1	20	0	120	0.956138579989783	0	0.037385696405249	-31.8195092369016
466	1	117	108	0	23	0	122	1.33079238201026	0	0.0863437450601821	-28.7099600021003
467	1	123	50	1	26	0	120	0.883468284009723	1	0.0818523842073287	13.2371361035193
468	0	91	84	1	25	0	122	0.676659963006387	1	0.0724434060596188	13.5711373780283
469	0	128	121	1	24	0	122	3.1260087370174	1	0.0378730974045865	13.942099533704
470	1	130	123	0	23	0	120	1.36782962700818	1	0.0753245210364381	14.3549800010502
471	1	49	131	0	22	0	122	1.21412984101335	0	0.00295194278862018	-0
472	1	103	131	1	25	0	122	1.55480579499272	0	0.0597874037760939	-27.1422747560566
473	0	148	48	1	28	0	122	0.824999469972681	1	0.0730199219943495	12.6637412620617
474	1	103	116	1	27	0	122	1.64572119098739	0	0.0429199750939743	-25.871752257264
475	0	143	59	0	30	0	120	1.2644006810151	0	0.0391589143399876	-24.3895676720387
476	1	70	138	0	33	0	122	1.21983130800072	0	0.034642387736021	-23.2877795890924
477	0	9	131	0	36	0	122	1.03140643698862	1	0.0359737825701347	11.2328909210242
478	0	134	12	1	35	0	122	1.57212967201485	1	0.0627942022407696	11.3567614963619
479	0	102	56	0	34	0	122	2.39204181899549	1	1.37913784798732e-06	0
480	0	75	111	0	33	0	122	0.951577603002079	1	0.0419820051607063	11.6438897945462
481	1	125	53	0	32	0	122	0.622535867994884	0	0.0474114181174011	-23.6197421158065
482	1	4	90	1	35	0	122	1.31570247697528	0	0.112917914119224	-22.7135229927238
483	0	90	2	1	38	0	122	0.984798741992563	1	0.112258886971798	11.0187587334124
484	1	79	89	1	37	0	120	1.15444774398929	1	0.11030051027795	11.1205689162718
485	0	133	83	0	36	0	122	1.52826975801145	1	0.033524411997912	11.2328909210242
486	0	149	9	0	35	0	122	1.03255314097623	1	0.0734439482405227	11.3567614963619
487	1	76	113	1	34	0	120	1.18157100799726	1	0.0477276305135257	11.4933327992393
488	0	7	40	0	34	0	122	1.20282796601532	1	0.0495079300503122	11.4933327992393
489	1	10	36	1	33	0	120	0.758813561988063	1	0.0379994425705719	11.6438897945462
490	0	28	87	1	32	0	122	1.07714724499965	1	0.0674011933482254	11.8098710579033
491	0	56	43	0	31	0	122	1.19904381400556	1	0.0661804910670383	11.9928937619321
492	1	123	60	1	30	0	120	1.77165535200038	1	0.0840179621076596	12.1947838360194
493	0	141	69	1	29	0	122	1.23413427299238	1	0.0505773034192039	12.4176125654648
494	1	56	43	1	28	0	122	1.43879093500436	0	0.0233945156092611	-0
495	0	9	57	0	31	0	122	1.60290340401116	1	0.0448768981423007	11.9928937619321
496	1	124	134	0	30	0	120	0.94067244901089	1	0.020778618905122	0
497	1	73	26	1	29	0	122	1.79937834799057	0	0.0477069768640543	-24.8352251309296
498	1	23	42	1	32	0	122	1.71720777699375	0	0.0584512968055168	-23.6197421158065
499	1	39	105	1	34	0	120	0.89293263599393	1	0.0445403876212499	11.4933327992393
500	0	18	12	0	33	0	122	1.62932904600166	1	0.0767534119226425	11.6438897945462
