Trial	Gender_Face1	Face1_nb	Face2_nb	Right_left_flip	Nb_Bubbles	Overlap_Target	Response	RT	Accuracy	Simi2Target	Trial_Reward
1	0	111	139	0	31	0	120	7.63826954993419	1	0	0
2	1	82	128	1	28	0	122	3.01058724604081	1	0	0
3	1	104	31	1	26	0	120	10.5764217239339	0	0	0
4	1	31	84	1	34	0	122	4.39539773704018	1	0	0
5	0	13	134	0	31	0	122	5.35584559990093	0	0	0
6	1	91	70	0	38	0	122	3.03539817000274	1	0	0
7	1	42	110	0	36	0	122	3.10881860298105	1	0	0
8	1	111	11	0	34	0	122	4.43514920701273	1	0	0
9	0	87	101	1	32	0	122	2.65745171403978	0	0	0
10	1	61	119	1	38	0	122	3.5871730260551	1	0	0
11	1	57	109	0	36	0	122	3.47641531308182	1	0	0
12	0	20	81	1	34	0	120	9.71742736594751	1	0	0
13	1	111	3	0	32	0	122	1.27705314499326	1	0	0
14	0	18	149	1	30	0	120	4.24798698793165	1	0	0
15	1	103	55	0	28	0	122	3.31874688598327	1	0	0
16	1	140	44	0	27	0	122	4.57248342398088	1	0	0
17	1	58	144	0	25	0	122	3.01225492404774	1	0	0
18	0	148	85	0	23	0	120	2.1278876530705	1	0	0
19	0	114	85	0	21	0	120	9.75939870090224	1	0	0
20	0	129	2	1	19	0	120	4.31016678200103	1	0	0
21	0	144	25	1	17	0	122	3.3380721390713	0	0	0
22	1	66	33	1	23	0	122	8.62945935595781	1	0	0
23	0	71	105	1	21	0	122	5.32323057891335	0	0	0
24	0	122	100	0	26	0	122	13.0996715330984	0	0	0
25	0	32	11	0	31	0	122	3.27742039598525	0	0	0
26	1	40	73	1	36	0	120	4.64478363108356	0	0	0
27	1	55	92	1	41	0	122	2.87378354195971	1	0	0
28	1	105	138	1	39	0	122	4.14617335400544	1	0	0
29	0	77	146	1	38	0	120	8.26879730308428	1	0	0
30	0	9	50	0	36	0	122	2.09767480392475	0	0	0
31	1	140	138	0	41	0	120	1.44179209007416	0	0	0
32	1	98	36	0	46	0	122	1.52742525597569	1	0	0
33	1	21	94	0	44	0	122	2.43349753005896	1	0	0
34	0	7	93	0	43	0	120	0.988378964015283	1	0	0
35	1	148	125	1	41	0	122	1.3315878440626	1	0	0
36	0	14	84	0	40	0	120	4.5166447700467	1	0	0
37	1	137	11	1	39	0	122	3.86310012894683	1	0	0
38	1	17	145	1	37	0	122	3.76494173705578	1	0	0
39	0	57	127	1	36	0	122	6.71930656209588	0	0	0
40	0	2	147	0	40	0	120	2.97393954801373	1	0	0
41	1	77	11	1	39	0	122	4.5624280780321	1	0	0
42	1	72	30	1	37	0	122	2.73900311789475	1	0	0
43	1	15	110	0	36	0	122	4.49818702903576	1	0	0
44	0	57	71	0	35	0	122	1.3252793350257	0	0	0
45	0	37	20	0	39	0	120	1.9505525319837	1	0	0
46	1	13	133	0	37	0	122	0.950500856968574	1	0	0
47	0	127	140	0	36	0	122	1.20736154599581	0	0	0
48	1	27	144	1	40	0	122	1.00572156498674	1	0	0
49	1	57	145	0	39	0	122	3.14068128098734	1	0	0
50	1	114	88	0	37	0	122	3.06563605705742	1	0	0
51	0	47	20	1	36	0	120	1.938331119949	1	0	0
52	1	124	112	0	35	0	122	3.61008209292777	1	0	0
53	1	10	147	1	34	0	122	1.76358909707051	1	0	0
54	1	89	142	0	33	0	122	1.60974701994564	1	0	0
55	1	37	86	1	32	0	122	2.32706394908018	1	0	0
56	0	150	141	1	31	0	122	1.70217741699889	0	0	0
57	1	23	90	1	34	0	122	5.56016497290693	1	0	0
58	0	43	37	1	33	0	120	2.50246653298382	1	0	0
59	1	30	63	1	32	0	122	2.63881026592571	1	0	0
60	0	3	138	1	31	0	120	2.40864939999301	1	0	0
61	1	70	48	1	30	0	122	3.02788049599621	1	0	0
62	1	101	37	0	29	0	120	2.8220253449399	0	0	0
63	1	56	51	0	32	0	122	1.82394268305507	1	0	0
64	0	86	75	1	31	0	120	1.37256273103412	1	0	0
65	1	123	109	1	30	0	122	2.21982328000013	1	0	0
66	1	83	148	1	29	0	122	0.975491647957824	1	0	0
67	1	26	73	0	28	0	122	6.27094324096106	1	0	0
68	0	33	57	0	27	0	120	2.14408053201623	1	0	0
69	0	147	109	1	26	0	120	2.23892620799597	1	0	0
70	1	30	147	0	25	0	120	2.36149763700087	0	0	0
71	0	123	2	0	28	0	120	4.70290742802899	1	0	0
72	0	146	119	1	27	0	120	2.05834300606512	1	0	0
73	0	62	51	1	26	0	120	1.57245614903513	1	0	0
74	1	88	95	0	25	0	122	1.94776566908695	1	0	0
75	0	21	101	1	24	0	120	2.29120873194188	1	0	0
76	0	55	83	1	23	0	120	1.07502544403542	1	0	0
77	0	58	1	1	22	0	122	1.91855257307179	0	0	0
78	1	61	41	0	25	0	122	1.91976632003207	1	0	0
79	1	42	139	1	24	0	122	1.39967893005814	1	0	0
80	0	17	90	0	23	0	120	2.88658979593311	1	0	0
81	0	119	15	1	23	0	120	2.15828762599267	1	0	0
82	1	109	140	1	22	0	122	1.50037555594463	1	0	0
83	0	118	73	0	21	0	120	0.957888512057252	1	0	0
84	0	112	87	1	20	0	120	1.71900707401801	1	0	0
85	1	5	34	1	19	0	122	1.80715713906102	1	0	0
86	0	81	6	1	19	0	120	4.55561285896692	1	0	0
87	1	13	123	1	18	0	122	4.02999219601043	1	0	0
88	0	116	48	1	17	0	122	4.50055152794812	0	0	0
89	0	139	140	0	19	0	120	1.38498717499897	1	0	0
90	1	5	8	1	19	0	122	0.83972430601716	1	0	0
91	1	136	53	0	18	0	122	1.34073651605286	1	0	0
92	0	15	116	1	17	0	120	2.48522958101239	1	0	0
93	1	12	127	0	16	0	122	2.15823447995353	1	0	0
94	1	90	49	0	16	0	122	1.8666708819801	1	0	0
95	1	113	133	0	15	0	120	3.61298004596028	0	0	0
96	1	103	32	1	17	0	122	2.19725172396284	1	0	0
97	0	89	96	1	16	0	120	1.64209879899863	1	0	0
98	1	126	4	1	16	0	122	2.72579190705437	1	0	0
99	1	64	110	0	15	0	122	3.61143095407169	1	0	0
100	0	109	108	0	14	0	122	3.47650687699206	0	0	0
101	0	94	136	1	20	0	122	3.65084493206814	0	0	0
102	0	126	87	1	28	0	120	2.37604290491436	1	0	0
103	0	11	24	1	26	0	122	6.02306052506901	0	0	0
104	0	39	36	1	33	0	122	1.86669396189973	0	0	0
105	0	22	57	1	40	0	122	2.54144271404948	0	0	0
106	0	80	13	0	46	0	120	2.94738559308462	1	0	0
107	1	82	134	0	44	0	122	1.33583180001006	1	0	0
108	1	113	87	1	42	0	122	3.09783729398623	1	0	0
109	0	116	138	1	40	0	122	3.57676510198507	0	0	0
110	1	89	15	0	46	0	122	3.28721173794474	1	0	0
111	1	15	143	1	44	0	122	5.48973182507325	1	0	0
112	1	55	138	0	42	0	120	3.65207272802945	0	0	0
113	1	107	34	1	48	0	122	2.12381244299468	1	0	0
114	0	76	142	0	46	0	122	4.45133088203147	0	0	0
115	1	99	125	0	51	0	122	4.55282050697133	1	0	0
116	0	101	38	0	50	0	120	1.87241284595802	1	0	0
117	0	52	112	0	48	0	122	3.3797901510261	0	0	0
118	0	32	45	0	53	0	122	2.98298106202856	0	0	0
119	0	22	38	0	58	0	120	2.83440384001005	1	0	0
120	1	107	145	1	56	0	122	0.836149942013435	1	0	0
121	1	14	56	1	55	0	122	4.72956647502724	1	0	0
122	0	142	34	0	53	0	120	2.13146315095946	1	0	0
123	0	149	85	0	52	0	120	7.61379822297022	1	0	0
124	0	60	9	0	50	0	122	4.78720663301647	0	0	0
125	0	100	42	0	55	0	120	2.70731643692125	1	0	0
126	1	28	85	1	53	0	122	1.36276774900034	1	0	0
127	0	8	18	1	52	0	120	3.98592147696763	1	0	0
128	0	50	134	0	50	0	120	4.45969896693714	1	0	0
129	0	51	96	0	49	0	120	1.24933252902701	1	0	0
130	0	29	69	1	48	0	122	6.30131634196732	0	0	0
131	0	116	18	1	52	0	122	5.40559471095912	0	0	0
132	1	50	73	0	56	0	122	1.77844453102443	1	0	0
133	0	52	68	1	55	0	120	1.68883657897823	1	0	0
134	0	33	46	1	53	0	122	3.5072014000034	0	0	0
135	0	124	129	1	57	0	120	2.76876233692747	1	0	0
136	1	42	45	1	56	0	120	2.78208366199397	0	0	0
137	0	2	30	1	60	0	122	2.51432629209012	0	0	0
138	0	4	121	0	64	0	120	1.35263430699706	1	0	0
139	1	147	32	1	63	0	122	3.48240672296379	1	0	0
140	0	147	57	0	61	0	120	6.26500436104834	1	0	0
141	1	89	121	0	60	0	120	4.84195482707582	0	0	0
142	1	98	148	0	64	0	122	3.24824566498864	1	0	0
143	1	129	145	1	63	0	122	2.92766179190949	1	0	0
144	1	25	147	0	61	0	120	5.35883414198179	0	0	0
145	1	33	127	0	65	0	122	5.6855708550429	1	0	0
146	0	8	27	1	64	0	122	4.77546545001678	0	0	0
147	1	30	129	1	67	0	120	2.89541416394059	0	0	0
148	1	24	139	1	71	0	122	2.88591328402981	1	0	0
149	0	32	91	1	70	0	120	2.6702323659556	1	0	0
150	1	72	76	1	69	0	120	4.03070999705233	0	0	0
151	1	55	17	0	72	0	122	0.877795104985125	1	0	0
152	0	91	19	0	71	0	120	1.23403483303264	1	0	0
153	0	97	59	1	70	0	120	0.758788179024123	1	0	0
154	0	44	119	1	69	0	120	1.66400531295221	1	0	0
155	1	57	75	0	68	0	122	0.851999175036326	1	0	0
156	1	87	103	1	67	0	122	8.52910056593828	1	0	0
157	1	4	107	1	66	0	122	5.38711262005381	1	0	0
158	1	44	30	0	64	0	122	2.83296408003662	1	0	0
159	1	99	79	1	63	0	122	3.47533337795176	1	0	0
160	1	98	80	0	62	0	122	1.75385476800147	1	0	0
161	1	130	71	1	61	0	122	4.33748810703401	1	0	0
162	0	65	12	0	60	0	120	2.40416410600301	1	0	0
163	1	109	148	0	59	0	122	2.64024570898619	1	0	0
164	1	136	99	0	58	0	122	7.54615012393333	1	0	0
165	1	145	87	1	58	0	122	2.55707531096414	1	0	0
166	1	99	64	0	57	0	122	4.17849219101481	1	0	0
167	0	87	86	1	56	0	122	4.10794875596184	0	0	0
168	1	108	101	0	58	0	122	4.97672345209867	1	0	0
169	1	132	116	0	58	0	122	2.94442223606165	1	0	0
170	1	89	54	0	57	0	122	3.64553512597922	1	0	0
171	0	121	100	1	56	0	120	3.59687067498453	1	0	0
172	1	97	97	0	55	0	122	2.89098270109389	1	0	0
173	1	148	26	0	54	0	122	2.330742572085	1	0	0
174	1	28	22	0	53	0	122	1.75331472000107	1	0	0
175	0	123	82	0	52	0	120	3.71362630499061	1	0	0
176	0	71	8	0	51	0	120	4.16583389800508	1	0	0
177	0	71	96	1	51	0	122	3.73526563704945	0	0	0
178	1	125	52	1	53	0	122	3.89848098100629	1	0	0
179	0	37	110	0	52	0	120	3.79526113404427	1	0	0
180	0	37	45	1	51	0	120	2.43726250994951	1	0	0
181	1	6	70	1	51	0	122	4.12758106004912	1	0	0
182	0	21	102	0	50	0	120	3.92231545690447	1	0	0
183	1	80	27	0	49	0	122	4.14376010803971	1	0	0
184	0	96	18	1	48	0	120	3.68147684005089	1	0	0
185	0	111	11	0	47	0	120	3.76708507305011	1	0	0
186	1	53	134	1	47	0	122	4.30543245398439	1	0	0
187	0	102	55	0	46	0	122	3.90959344594739	0	0	0
188	0	56	95	0	48	0	120	3.16276207508054	1	0	0
189	1	82	112	1	47	0	122	2.26264445495326	1	0	0
190	1	105	127	1	47	0	122	2.6557248729514	1	0	0
191	0	108	86	0	46	0	120	3.401595775038	1	0	0
192	1	61	84	0	45	0	122	2.61142366402782	1	0	0
193	0	20	110	1	44	0	122	2.24024294002447	0	0	0
194	1	49	6	1	47	0	122	3.93096231599338	1	0	0
195	0	92	68	1	46	0	122	3.28601720894221	0	0	0
196	0	6	20	1	48	0	122	3.8849393799901	0	0	0
197	0	120	149	1	50	0	120	1.65845695696771	1	0	0
198	1	117	88	0	49	0	122	1.34942364797462	1	0	0
199	0	53	78	1	49	0	120	0.981418368057348	1	0	0
200	1	104	68	0	48	0	120	4.79743581695948	0	0	0
201	1	57	59	1	50	0	122	3.252913449076	1	0	0
202	1	127	128	0	47	0	122	6.45822694490198	1	0	0
203	0	109	43	0	45	0	120	5.41439574293327	1	0	0
204	1	101	28	0	42	0	122	2.90009080199525	1	0	0
205	0	97	50	1	40	0	120	4.58670507592615	1	0	0
206	1	81	90	1	37	0	122	3.95529598090798	1	0	0
207	0	28	38	1	35	0	120	8.81376676901709	1	0	0
208	1	113	94	0	32	0	122	4.69876506202854	1	0	0
209	0	125	56	0	30	0	122	5.54129471001215	0	0	0
210	0	98	52	1	38	0	122	14.0942560309777	0	0	0
211	0	29	19	1	45	0	122	4.36578490701504	0	0	0
212	0	67	73	1	51	0	122	4.93436792504508	0	0	0
213	0	33	3	1	57	0	120	3.50347829598468	1	0	0
214	0	47	78	1	55	0	120	5.29292723094113	1	0	0
215	0	132	85	1	54	0	122	4.16724626091309	0	0	0
216	0	67	62	0	60	0	122	5.31274087901693	0	0	0
217	0	36	55	1	65	0	120	3.67388865305111	1	0	0
218	1	90	142	0	63	0	122	2.15342033200432	1	0	0
219	0	42	8	0	62	0	122	1.92029398994055	0	0	0
220	1	61	102	1	67	0	120	0.96092191291973	0	0	0
221	1	57	98	0	72	0	122	2.23411473701708	1	0	0
222	1	126	137	1	70	0	122	6.59747705701739	1	0	0
223	1	5	54	1	69	0	122	1.92073020897806	1	0	0
224	0	114	109	1	67	0	122	4.67302583402488	0	0	0
225	1	72	58	1	72	0	122	5.46941046300344	1	0	0
226	1	5	103	1	71	0	122	2.49620324908756	1	0	0
227	0	51	140	0	69	0	120	6.47295523597859	1	0	0
228	0	3	20	0	68	0	120	3.28899018198717	1	0	0
229	0	63	143	1	66	0	120	4.04005611594766	1	0	0
230	0	24	56	1	65	0	122	9.26378670998383	0	0	0
231	1	95	104	0	69	0	122	2.08192460890859	1	0	0
232	0	104	23	0	68	0	120	2.15497950895224	1	0	0
233	1	61	150	0	66	0	122	1.26565241604112	1	0	0
234	0	66	19	0	65	0	122	2.31859307794366	0	0	0
235	1	69	129	0	69	0	122	1.40566161600873	1	0	0
236	1	110	85	1	68	0	122	4.68435843696352	1	0	0
237	1	117	82	0	67	0	122	2.39227387902793	1	0	0
238	0	77	128	0	65	0	120	3.19709826190956	1	0	0
239	0	7	66	1	64	0	120	2.67929166706745	1	0	0
240	0	128	19	1	63	0	120	3.55158584797755	1	0	0
241	0	114	106	1	61	0	120	8.1228044120362	1	0	0
242	1	50	53	0	60	0	122	4.68617176893167	1	0	0
243	1	31	66	1	59	0	122	4.50579482200556	1	0	0
244	0	130	90	1	58	0	120	2.91680867702235	1	0	0
245	0	91	23	0	56	0	120	4.05964658700395	1	0	0
246	0	19	11	1	55	0	120	3.17715323495213	1	0	0
247	0	4	24	0	54	0	120	2.27461162605323	1	0	0
248	1	48	32	1	53	0	120	2.30199554795399	0	0	0
249	1	98	59	0	56	0	122	3.65482888102997	1	0	0
250	1	139	35	1	55	0	122	2.35003565100487	1	0	0
251	0	47	50	1	54	0	120	10.4203866360476	1	0	0
252	0	57	146	1	53	0	122	5.51791716704611	0	0	0
253	1	80	21	1	56	0	122	2.72724120598286	1	0	0
254	0	12	97	1	55	0	120	7.52519218507223	1	0	0
255	1	34	10	1	54	0	120	3.90514138003346	0	0	0
256	1	69	29	0	57	0	122	4.46224835701287	1	0	0
257	1	139	149	0	56	0	122	6.64307945303153	1	0	0
258	0	114	65	1	55	0	122	2.73216281598434	0	0	0
259	1	27	5	1	58	0	122	1.89095824095421	1	0	0
260	0	116	48	1	57	0	120	2.50036163697951	1	0	0
261	1	51	24	0	56	0	122	4.73882391501684	1	0	0
262	0	47	60	1	55	0	120	1.63806274393573	1	0	0
263	1	126	123	0	54	0	122	2.15316145692486	1	0	0
264	0	77	7	0	53	0	120	6.14511210494675	1	0	0
265	0	3	135	0	52	0	120	3.12753301800694	1	0	0
266	0	10	25	0	51	0	120	3.73254592204466	1	0	0
267	1	38	143	0	50	0	122	1.85605784901418	1	0	0
268	1	45	25	0	49	0	122	3.03493236203212	1	0	0
269	1	15	69	0	48	0	120	2.68499055400025	0	0	0
270	1	57	81	1	51	0	122	0.964816623949446	1	0	0
271	1	118	54	0	50	0	122	2.17305914405733	1	0	0
272	0	67	73	1	49	0	120	2.64266004692763	1	0	0
273	0	52	11	1	49	0	120	2.78064896399155	1	0	0
274	1	45	15	1	48	0	122	3.04085654590745	1	0	0
275	1	24	81	1	47	0	122	2.34482563205529	1	0	0
276	0	96	119	1	46	0	120	2.65497354301624	1	0	0
277	0	21	67	1	45	0	120	5.03246190189384	1	0	0
278	1	77	115	0	44	0	120	5.45526463806164	0	0	0
279	0	136	90	0	47	0	120	3.35427093796898	1	0	0
280	0	74	8	1	46	0	122	5.18211730092298	0	0	0
281	0	7	82	0	48	0	122	4.37470531091094	0	0	0
282	1	17	78	0	51	0	122	2.39871341292746	1	0	0
283	1	23	16	0	50	0	122	1.23527889407706	1	0	0
284	0	105	56	0	49	0	120	2.76898021309171	1	0	0
285	0	125	114	1	48	0	120	4.79734811699018	1	0	0
286	0	37	12	1	48	0	122	2.31607930699829	0	0	0
287	0	28	67	0	50	0	120	1.55597282899544	1	0	0
288	1	74	87	1	49	0	120	1.02773325401358	0	0	0
289	0	86	84	1	52	0	120	3.04154982801992	1	0	0
290	0	96	144	1	51	0	120	10.8741300640395	1	0	0
291	0	30	89	0	50	0	120	3.58518154302146	1	0	0
292	1	41	100	0	49	0	120	4.51516631501727	0	0	0
293	0	1	46	1	52	0	120	3.55790468596388	1	0	0
294	0	80	140	0	51	0	122	2.42539646395016	0	0	0
295	0	76	97	1	53	0	120	1.5009230870055	1	0	0
296	0	149	14	0	52	0	122	5.01408437406644	0	0	0
297	1	66	93	0	55	0	122	2.54853184800595	1	0	0
298	1	128	129	1	54	0	122	0.826443808968179	1	0	0
299	0	106	7	1	53	0	120	2.18468808301259	1	0	0
300	0	14	74	1	52	0	120	1.87866163195577	1	0	0
301	1	78	102	0	52	0	122	1.60674581595231	1	0	0
302	1	138	77	1	49	0	122	2.64904651406687	1	0	0
303	0	115	68	0	47	0	120	2.80617398093455	1	0	0
304	1	14	16	0	44	0	122	2.96883419703227	1	0	0
305	0	24	94	1	42	0	120	7.51771993900184	1	0	0
306	0	50	17	0	39	0	120	4.30682656203862	1	0	0
307	1	119	91	1	37	0	122	2.55077479791362	1	0	0
308	1	118	120	0	34	0	122	4.71575790597126	1	0	0
309	1	37	48	1	32	0	122	2.25452387297992	1	0	0
310	0	33	8	0	29	0	122	2.00074064102955	0	0	0
311	1	87	59	1	37	0	122	1.18152422492858	1	0	0
312	0	72	136	0	35	0	120	1.41333134402521	1	0	0
313	0	109	129	0	32	0	120	3.49099692900199	1	0	0
314	0	90	56	1	30	0	120	1.92146794102155	1	0	0
315	1	96	64	0	28	0	122	0.890934825059958	1	0	0
316	1	108	40	0	26	0	122	1.39095927495509	1	0	0
317	0	147	92	1	23	0	120	1.59826121397782	1	0	0
318	1	11	13	0	21	0	122	2.05166878201999	1	0	0
319	0	30	27	1	19	0	120	1.38314919790719	1	0	0
320	0	100	51	0	17	0	122	1.87013869604561	0	0	0
321	1	125	2	1	23	0	122	1.75276813004166	1	0	0
322	0	17	50	1	21	0	120	0.768060893053189	1	0	0
323	1	48	144	0	19	0	120	3.35309231898282	0	0	0
324	1	55	93	0	25	0	122	1.01212514995132	1	0	0
325	0	78	134	0	23	0	120	3.24380130902864	1	0	0
326	0	72	15	0	21	0	120	3.38903488602955	1	0	0
327	1	133	146	1	20	0	122	1.2230363029521	1	0	0
328	0	78	124	1	18	0	122	1.35710336291231	0	0	0
329	0	26	92	1	23	0	122	3.15864848101046	0	0	0
330	1	50	85	0	29	0	122	2.0098439110443	1	0	0
331	1	18	19	1	27	0	122	4.15821338200476	1	0	0
332	0	138	140	0	25	0	122	4.12115085404366	0	0	0
333	0	135	135	0	30	0	122	1.50031708797906	0	0	0
334	0	17	138	1	35	0	120	2.79907249007374	1	0	0
335	1	71	59	0	33	0	122	7.26547001604922	1	0	0
336	0	73	126	1	32	0	122	1.69743085606024	0	0	0
337	0	83	61	1	37	0	122	13.1864639380947	0	0	0
338	0	109	141	0	41	0	120	8.17661446298007	1	0	0
339	0	39	49	1	40	0	122	4.95284307003021	0	0	0
340	1	148	121	1	44	0	122	1.77769224706572	1	0	0
341	1	79	47	0	43	0	122	1.02347036101855	1	0	0
342	0	81	64	0	41	0	120	2.64671257010195	1	0	0
343	0	84	94	1	40	0	120	5.16006211400963	1	0	0
344	0	2	15	0	39	0	120	2.3364563860232	1	0	0
345	0	116	83	1	37	0	122	8.06360383599531	0	0	0
346	1	129	58	1	41	0	122	2.24492348707281	1	0	0
347	0	150	2	0	40	0	122	4.73526456090622	0	0	0
348	0	53	115	0	44	0	120	2.28066328703426	1	0	0
349	1	140	23	0	43	0	122	1.45745054306462	1	0	0
350	1	32	109	1	41	0	120	2.38925945805386	0	0	0
351	0	80	40	0	45	0	120	5.86628601502161	1	0	0
352	1	120	64	1	44	0	122	1.28468462591991	1	0	0
353	1	36	23	0	43	0	122	1.22428092802875	1	0	0
354	1	134	92	0	41	0	122	1.20606126799248	1	0	0
355	0	76	36	1	40	0	120	4.85188922809903	1	0	0
356	1	117	42	1	39	0	120	3.15296440094244	0	0	0
357	0	31	6	1	43	0	122	4.82190120290034	0	0	0
358	0	78	73	0	46	0	120	3.05165718891658	1	0	0
359	1	126	67	1	45	0	122	3.15672158089001	1	0	0
360	0	149	107	1	44	0	120	1.6332499620039	1	0	0
361	1	60	125	0	43	0	122	1.10991477698553	1	0	0
362	0	120	134	1	41	0	122	3.32033119001426	0	0	0
363	0	109	91	1	45	0	120	3.07700686901808	1	0	0
364	1	25	93	1	44	0	122	1.27640118694399	1	0	0
365	0	87	49	1	43	0	122	9.23980154201854	0	0	0
366	0	52	55	1	46	0	122	8.20301795902196	0	0	0
367	0	11	54	1	49	0	122	2.42680530296639	0	0	0
368	1	52	35	0	53	0	122	1.03036830399651	1	0	0
369	0	100	146	0	52	0	120	2.82019274309278	1	0	0
370	1	20	145	1	51	0	122	3.17491690104362	1	0	0
371	1	131	26	0	50	0	122	3.01836686802562	1	0	0
372	1	37	133	1	48	0	122	1.48386346700136	1	0	0
373	1	97	14	1	47	0	122	1.34304985508788	1	0	0
374	1	7	141	1	46	0	122	1.23192295909394	1	0	0
375	0	37	32	1	45	0	120	2.8926535830833	1	0	0
376	1	120	92	0	44	0	122	1.69992416491732	1	0	0
377	1	68	50	1	43	0	122	0.814365996979177	1	0	0
378	1	113	89	0	42	0	122	0.796515854075551	1	0	0
379	1	20	110	0	41	0	122	1.56472469505388	1	0	0
380	0	12	125	1	40	0	122	1.50745641405229	0	0	0
381	0	113	19	0	43	0	120	3.58905785100069	1	0	0
382	1	58	59	1	42	0	122	2.50254166102968	1	0	0
383	1	13	103	1	41	0	122	1.34158596605994	1	0	0
384	0	1	87	0	40	0	122	1.09161735605448	0	0	0
385	1	93	142	0	43	0	120	3.98512819595635	0	0	0
386	1	10	20	1	46	0	122	3.88128919003066	1	0	0
387	1	51	46	0	45	0	122	3.15095600695349	1	0	0
388	1	15	20	1	44	0	122	2.61961064499337	1	0	0
389	1	131	83	0	43	0	122	1.59042717993725	1	0	0
390	1	14	21	0	42	0	122	1.05279723007698	1	0	0
391	0	143	104	0	41	0	122	0.345351691939868	0	0	0
392	1	139	97	0	44	0	122	1.87629778496921	1	0	0
393	0	54	112	1	43	0	120	2.0372164620785	1	0	0
394	0	39	22	0	42	0	120	1.95246635505464	1	0	0
395	0	92	99	0	41	0	120	1.85475251008756	1	0	0
396	0	73	29	1	40	0	120	5.8583596739918	1	0	0
397	1	121	12	1	40	0	122	0.988025367027149	1	0	0
398	0	13	122	1	39	0	120	2.68348731496371	1	0	0
399	0	75	138	0	38	0	120	2.42726198793389	1	0	0
400	0	70	8	0	37	0	120	3.8744486750802	1	0	0
401	1	54	56	1	52	0	122	5.00231639598496	1	0	0
402	0	38	31	0	49	0	120	3.0381486780243	1	0	0
403	1	76	83	0	47	0	122	4.38609152298886	1	0	0
404	0	41	131	1	44	0	120	13.2101403630804	1	0	0
405	0	137	138	0	42	0	120	8.99076522199903	1	0	0
406	1	96	19	1	39	0	122	3.69368789694272	1	0	0
407	1	62	34	0	37	0	122	4.00435373804066	1	0	0
408	0	96	9	0	34	0	120	4.84480376599822	1	0	0
409	1	60	102	0	32	0	122	4.36239491193555	1	0	0
410	1	60	3	1	29	0	122	2.68382750195451	1	0	0
411	1	104	78	1	27	0	122	2.75599072303157	1	0	0
412	0	121	56	0	24	0	120	4.36880675691646	1	0	0
413	0	15	22	1	22	0	122	6.93808253901079	0	0	0
414	0	17	58	0	29	0	120	9.0554277029587	1	0	0
415	0	54	51	1	27	0	122	8.05931938404683	0	0	0
416	0	72	141	1	34	0	120	7.27281180489808	1	0	0
417	1	101	145	1	32	0	122	2.07984092808329	1	0	0
418	0	133	21	1	30	0	120	4.38426020496991	1	0	0
419	0	65	72	1	28	0	122	2.53764112805948	0	0	0
420	1	84	1	1	34	0	122	2.95128931105137	1	0	0
421	1	80	84	0	32	0	122	4.79692791309208	1	0	0
422	1	81	36	1	30	0	122	4.52351671596989	1	0	0
423	0	11	41	0	28	0	120	4.77514331194106	1	0	0
424	1	61	139	1	26	0	122	6.76706958096474	1	0	0
425	0	32	73	0	25	0	122	3.36259878706187	0	0	0
426	0	33	122	0	30	0	120	3.06271865707822	1	0	0
427	0	137	26	0	28	0	120	3.63990618195385	1	0	0
428	0	129	67	0	27	0	120	4.34401280805469	1	0	0
429	1	147	130	0	25	0	120	5.65025998395868	0	0	0
430	0	31	62	1	30	0	122	3.8363546699984	0	0	0
431	1	123	104	1	35	0	122	25.9000255619176	1	0	0
432	1	18	31	1	33	0	122	3.5781388139585	1	0	0
433	1	150	106	1	32	0	122	4.01253338204697	1	0	0
434	0	60	144	1	30	0	120	2.46020671492442	1	0	0
435	1	41	48	0	28	0	120	5.80532663001213	0	0	0
436	1	9	40	0	33	0	122	1.89849485596642	1	0	0
437	1	81	57	1	32	0	122	7.87632418097928	1	0	0
438	1	109	3	0	30	0	122	3.16045272990596	1	0	0
439	1	142	108	1	29	0	122	3.0452472390607	1	0	0
440	1	90	12	0	27	0	122	8.75931301701348	1	0	0
441	1	85	33	0	26	0	122	1.97552968701348	1	0	0
442	1	112	14	1	24	0	120	6.16509433905594	0	0	0
443	1	134	127	1	29	0	122	3.02657347696368	1	0	0
444	1	12	51	0	27	0	122	1.36472677194979	1	0	0
445	1	2	88	0	26	0	122	3.22840867005289	1	0	0
446	1	111	101	1	24	0	122	1.55777595797554	1	0	0
447	1	86	49	0	23	0	122	1.99743917200249	1	0	0
448	0	22	69	1	22	0	122	1.52290622098371	0	0	0
449	1	52	19	1	26	0	120	4.67559246602468	0	0	0
450	0	112	130	1	30	0	120	3.20810996904038	1	0	0
451	0	42	84	0	28	0	120	4.61050156108104	1	0	0
452	1	82	123	1	27	0	122	1.88240639399737	1	0	0
453	1	47	27	0	26	0	122	2.50779671501368	1	0	0
454	0	42	130	1	24	0	120	7.53946370701306	1	0	0
455	0	93	123	1	23	0	120	2.57501849194523	1	0	0
456	1	144	116	1	22	0	122	1.80454382195603	1	0	0
457	1	80	50	1	21	0	120	8.19341714598704	0	0	0
458	0	19	106	1	24	0	122	3.49725809996016	0	0	0
459	0	59	11	1	28	0	120	0.975139777059667	1	0	0
460	0	68	50	0	27	0	122	2.73538977303542	0	0	0
461	1	4	22	0	30	0	122	1.33332196401898	1	0	0
462	1	25	50	1	29	0	122	2.27012826700229	1	0	0
463	1	33	117	1	28	0	122	8.16026116500143	1	0	0
464	1	104	52	0	27	0	122	1.02437214693055	1	0	0
465	0	117	32	1	26	0	122	1.51898235292174	0	0	0
466	1	106	15	1	29	0	122	8.60010347492062	1	0	0
467	0	15	103	1	28	0	120	3.51168739190325	1	0	0
468	1	99	139	0	27	0	122	5.88449268194381	1	0	0
469	0	115	30	1	26	0	122	1.94214114698116	0	0	0
470	0	98	2	1	29	0	122	3.4527175379917	0	0	0
471	0	42	81	0	32	0	120	6.00441922899336	1	0	0
472	0	25	127	0	31	0	120	3.79263820999768	1	0	0
473	1	7	97	1	30	0	122	0.84943493292667	1	0	0
474	1	85	35	0	29	0	122	0.751497264020145	1	0	0
475	0	143	46	1	28	0	122	7.27268441300839	0	0	0
476	0	62	62	1	31	0	122	0.910693889949471	0	0	0
477	1	23	58	1	34	0	122	11.1932934219949	1	0	0
478	0	53	35	0	33	0	122	6.12341052608099	0	0	0
479	1	120	121	1	36	0	122	3.10685434693005	1	0	0
480	0	134	115	0	35	0	122	2.01698860700708	0	0	0
481	1	147	41	0	38	0	120	2.70963467506226	0	0	0
482	1	146	71	1	41	0	120	2.7563453509938	0	0	0
483	1	96	119	1	44	0	122	0.729757657973096	1	0	0
484	0	45	60	1	43	0	122	4.00500842405017	0	0	0
485	1	92	102	1	46	0	122	0.732986710965633	1	0	0
486	0	26	16	1	45	0	120	0.863774641067721	1	0	0
487	0	102	125	1	44	0	120	1.9565528150415	1	0	0
488	0	50	35	0	43	0	120	1.22720670001581	1	0	0
489	0	4	9	0	42	0	122	4.40818397095427	0	0	0
490	1	19	38	0	45	0	122	1.61624854197726	1	0	0
491	1	121	41	1	44	0	122	1.03872321406379	1	0	0
492	0	100	44	0	43	0	120	6.03500533604529	1	0	0
493	1	9	26	1	42	0	122	0.829937072936445	1	0	0
494	1	125	100	0	41	0	122	4.62778045900632	1	0	0
495	1	114	83	0	40	0	122	1.90641699801199	1	0	0
496	0	138	66	0	39	0	120	3.00371237006038	1	0	0
497	0	51	78	0	38	0	122	4.02262991503812	0	0	0
498	1	95	70	0	41	0	122	2.05433320091106	1	0	0
499	1	73	30	0	40	0	122	1.23337722697761	1	0	0
500	1	24	99	1	39	0	120	1.96618978190236	0	0	0
