Trial	Gender_Face1	Face1_nb	Face2_nb	Right_left_flip	Nb_Bubbles	Overlap_Target	Response	RT	Accuracy	Simi2Target	Trial_Reward
1	1	120	145	1	79	0	120	0.878790685004788	0	0	0
2	0	105	112	0	87	0	120	0.811877454980277	1	0	0
3	0	74	129	0	84	0	120	0.589371834008489	1	0	0
4	1	140	5	0	82	0	122	0.60601216298528	1	0	0
5	1	144	6	0	80	0	122	3.13078762899386	1	0	0
6	0	20	26	1	78	0	120	1.20231754201814	1	0	0
7	0	73	27	0	75	0	120	0.743796518974705	1	0	0
8	1	3	98	1	73	0	122	0.911049617978279	1	0	0
9	1	30	15	0	71	0	120	1.84787397901528	0	0	0
10	1	112	28	1	78	0	120	1.61788110699854	0	0	0
11	0	25	111	1	84	0	120	0.789857397991	1	0	0
12	0	80	130	0	82	0	120	0.964033006981481	1	0	0
13	1	37	42	1	80	0	120	4.41864551301114	0	0	0
14	1	26	108	1	86	0	122	0.830155314994045	1	0	0
15	1	122	43	0	84	0	122	4.11352042801445	1	0	0
16	1	40	98	1	82	0	120	4.01827451199642	0	0	0
17	1	69	9	1	88	0	120	0.814463304006495	0	0	0
18	1	31	91	0	94	0	122	4.91399145097239	1	0	0
19	1	89	64	0	92	0	122	1.17025033797836	1	0	0
20	1	118	9	0	90	0	120	0.918923844001256	0	0	0
21	0	109	138	0	95	0	120	1.5199665800028	1	0	0
22	1	95	92	0	94	0	122	0.840633381012594	1	0	0
23	0	105	2	1	92	0	120	1.73184743800084	1	0	0
24	1	51	10	1	91	0	120	1.24270986500778	0	0	0
25	0	73	92	0	95	0	120	1.05465120897861	1	0	0
26	0	32	30	1	94	0	120	0.921461631980492	1	0	0
27	0	8	72	1	92	0	120	0.745247839979129	1	0	0
28	1	105	123	1	91	0	122	1.08005128800869	1	0	0
29	0	131	137	1	89	0	120	0.689373503992101	1	0	0
30	0	81	57	1	88	0	120	1.04299943600199	1	0	0
31	1	41	58	1	86	0	120	0.814575767988572	0	0	0
32	1	81	105	1	91	0	120	12.0181891829998	0	0	0
33	0	126	98	0	95	0	120	0.670736722007859	1	0	0
34	1	28	92	0	94	0	122	0.912565805978375	1	0	0
35	0	117	11	0	92	0	120	1.3208622210077	1	0	0
36	1	21	118	1	91	0	122	0.872803156991722	1	0	0
37	0	59	51	1	89	0	120	2.24270861697732	1	0	0
38	1	13	62	0	88	0	120	1.05046102000051	0	0	0
39	0	48	135	1	92	0	120	1.04903607899905	1	0	0
40	1	48	74	0	91	0	120	1.5560937320115	0	0	0
41	1	127	128	1	95	0	120	0.69051534900791	0	0	0
42	0	75	150	0	99	0	120	0.987928720016498	1	0	0
43	0	16	116	0	97	0	120	1.37377025900059	1	0	0
44	1	104	120	0	96	0	120	1.28789458001847	0	0	0
45	0	58	136	0	100	0	120	1.16916873501032	1	0	0
46	1	51	54	0	99	0	122	2.22292599701905	1	0	0
47	1	19	5	1	98	0	122	0.811456152994651	1	0	0
48	1	59	12	0	96	0	122	0.726964202011004	1	0	0
49	1	105	134	0	95	0	122	2.75878302400815	1	0	0
50	1	75	71	0	94	0	122	1.10151713600499	1	0	0
51	0	9	112	1	93	0	120	0.758671997988131	1	0	0
52	1	8	128	1	92	0	120	5.10884242499014	0	0	0
53	1	50	88	0	95	0	120	0.942046825977741	0	0	0
54	0	68	147	0	98	0	120	0.653494161990238	1	0	0
55	1	52	83	0	97	0	122	0.831794364989037	1	0	0
56	0	148	51	1	96	0	120	0.747961526998552	1	0	0
57	1	56	45	0	95	0	120	2.83436368999537	0	0	0
58	0	135	9	0	98	0	120	1.73385113201221	1	0	0
59	0	16	6	1	97	0	122	1.66902432998177	0	0	0
60	1	95	45	0	101	0	122	1.03976028898614	1	0	0
61	0	146	100	0	99	0	120	0.874822387006134	1	0	0
62	1	102	46	0	98	0	120	2.62866061998648	0	0	0
63	0	130	111	0	101	0	120	0.80777582101291	1	0	0
64	0	132	75	1	100	0	120	6.09353596699657	1	0	0
65	1	24	26	1	99	0	122	1.00562502499088	1	0	0
66	1	111	96	1	98	0	122	1.1789902090095	1	0	0
67	1	10	65	1	97	0	122	0.799644971993985	1	0	0
68	1	72	146	1	96	0	122	1.26971161700203	1	0	0
69	0	15	84	1	95	0	120	0.847380495019024	1	0	0
70	1	94	70	0	95	0	120	1.63336413301295	0	0	0
71	0	140	14	0	97	0	120	1.03008966401103	1	0	0
72	1	43	93	1	96	0	122	5.46620949899079	1	0	0
73	0	40	76	1	96	0	120	0.708013878989732	1	0	0
74	1	74	73	1	95	0	122	1.0047606669832	1	0	0
75	0	43	113	1	94	0	120	1.24892622500192	1	0	0
76	1	133	102	0	93	0	120	3.15630225097993	0	0	0
77	1	90	101	0	95	0	122	2.92284807297983	1	0	0
78	1	89	95	1	95	0	122	0.969886363978731	1	0	0
79	0	8	134	0	94	0	120	0.633248377998825	1	0	0
80	0	18	10	1	93	0	122	1.25225518801017	0	0	0
81	0	147	128	0	95	0	120	0.86356189698563	1	0	0
82	0	67	77	0	94	0	120	3.08934269699967	1	0	0
83	0	142	131	1	94	0	120	0.626583192002727	1	0	0
84	1	126	27	1	93	0	122	0.750925278989598	1	0	0
85	1	61	72	0	92	0	120	0.581507648981642	0	0	0
86	0	50	70	1	94	0	120	1.06006173801143	1	0	0
87	1	136	69	1	94	0	122	1.5342218799924	1	0	0
88	1	30	140	0	93	0	122	2.61471010398236	1	0	0
89	0	46	66	1	92	0	120	0.954847893008264	1	0	0
90	0	2	113	0	91	0	120	0.985318496997934	1	0	0
91	1	62	49	0	90	0	122	1.40679206399363	1	0	0
92	0	136	124	1	90	0	120	0.883645535999676	1	0	0
93	0	132	39	1	89	0	120	2.58862390299328	1	0	0
94	0	65	62	0	88	0	120	0.96186871099053	1	0	0
95	0	61	6	1	87	0	122	2.70492878500954	0	0	0
96	0	148	147	1	89	0	120	0.953833534993464	1	0	0
97	0	44	9	0	89	0	120	1.7687540500192	1	0	0
98	1	121	23	1	88	0	120	1.05548319697846	0	0	0
99	1	131	136	1	90	0	120	0.882076683017658	0	0	0
100	1	83	53	1	92	0	120	0.667000570014352	0	0	0
101	1	62	40	1	95	0	122	1.01571481800056	1	0	0
102	1	5	143	1	92	0	122	0.847980474005453	1	0	0
103	1	144	9	0	90	0	122	1.12010514899157	1	0	0
104	0	149	4	1	87	0	120	1.92975035900599	1	0	0
105	0	61	70	0	85	0	120	0.713473501004046	1	0	0
106	0	11	34	1	82	0	120	1.35350541997468	1	0	0
107	0	111	38	0	80	0	122	4.21765806898475	0	0	0
108	0	7	111	0	87	0	120	0.661239098990336	1	0	0
109	0	113	94	1	85	0	120	0.855374165024841	1	0	0
110	0	123	99	1	83	0	120	1.01791131898062	1	0	0
111	0	138	91	0	80	0	120	0.757758048013784	1	0	0
112	0	46	45	1	78	0	120	0.765219428983983	1	0	0
113	0	134	96	0	76	0	120	3.41857323501608	1	0	0
114	0	74	66	0	74	0	120	0.663282908004476	1	0	0
115	1	62	127	1	71	0	122	0.816655659000389	1	0	0
116	1	119	91	0	69	0	120	1.50176280899905	0	0	0
117	1	125	70	0	76	0	122	1.41458440598217	1	0	0
118	1	13	81	0	74	0	122	1.51481396498275	1	0	0
119	1	25	60	0	72	0	120	1.25862113002222	0	0	0
120	0	125	95	0	78	0	120	2.26950472898898	1	0	0
121	1	30	64	0	76	0	120	0.767286456015427	0	0	0
122	0	140	30	0	82	0	120	1.46915101798368	1	0	0
123	0	48	139	1	80	0	120	0.743204402999254	1	0	0
124	1	21	121	1	78	0	122	1.71936832199572	1	0	0
125	0	88	106	1	77	0	120	0.919005612988258	1	0	0
126	1	121	32	0	75	0	122	0.998860984022031	1	0	0
127	1	65	15	1	73	0	122	0.93138012199779	1	0	0
128	0	65	18	1	71	0	120	1.29879949000315	1	0	0
129	0	134	134	0	70	0	120	0.731503183982568	1	0	0
130	0	20	101	1	68	0	120	0.635231421998469	1	0	0
131	1	74	42	0	66	0	120	1.0704779200023	0	0	0
132	1	53	43	0	71	0	120	2.46378168201772	0	0	0
133	1	18	22	1	76	0	120	0.986944194999523	0	0	0
134	0	23	111	0	81	0	120	0.688113111013081	1	0	0
135	0	38	99	0	80	0	120	1.14575811600662	1	0	0
136	1	50	2	1	78	0	120	1.23989322598209	0	0	0
137	1	76	18	1	83	0	120	1.95575180399464	0	0	0
138	1	69	65	0	87	0	120	1.80146837100619	0	0	0
139	1	13	134	0	92	0	122	2.07872816402232	1	0	0
140	0	91	75	1	90	0	120	1.47989610899822	1	0	0
141	1	75	110	1	89	0	122	2.31416912999703	1	0	0
142	0	131	37	0	88	0	120	0.714378684991971	1	0	0
143	1	112	97	1	86	0	120	1.32240815201658	0	0	0
144	0	139	131	1	90	0	120	0.802431741991313	1	0	0
145	0	81	69	1	89	0	120	0.719206227018731	1	0	0
146	1	3	130	0	87	0	120	1.11874000000535	0	0	0
147	0	108	86	1	92	0	120	1.42293432497536	1	0	0
148	1	35	77	0	90	0	120	0.64327356198919	0	0	0
149	1	111	148	0	94	0	122	2.22222184200655	1	0	0
150	0	146	146	0	93	0	120	1.0748031999974	1	0	0
151	1	96	104	1	92	0	122	0.828854092018446	1	0	0
152	0	28	60	1	90	0	120	0.775781960983295	1	0	0
153	1	48	44	1	89	0	120	0.821986322989687	0	0	0
154	1	105	18	0	93	0	122	1.22567993900157	1	0	0
155	0	75	77	0	92	0	120	1.22215694800252	1	0	0
156	0	86	107	0	90	0	120	1.45056383797782	1	0	0
157	0	131	55	1	89	0	120	0.644472677988233	1	0	0
158	0	150	25	0	88	0	120	0.864486039004987	1	0	0
159	0	58	124	1	87	0	120	0.76199952699244	1	0	0
160	0	13	141	0	86	0	120	0.936569124984089	1	0	0
161	0	91	8	0	85	0	120	0.959294564003358	1	0	0
162	1	101	87	0	83	0	122	2.30293855001219	1	0	0
163	0	134	94	1	82	0	120	0.791826469998341	1	0	0
164	1	20	53	1	81	0	122	0.917220286006341	1	0	0
165	0	4	3	0	80	0	120	0.964713118999498	1	0	0
166	1	50	61	1	79	0	122	1.57178837101674	1	0	0
167	1	97	39	1	78	0	122	1.02559894300066	1	0	0
168	1	55	60	1	77	0	120	2.82146712299436	0	0	0
169	1	148	67	1	80	0	122	1.64914620900527	1	0	0
170	1	84	68	0	79	0	122	0.748606506997021	1	0	0
171	1	126	135	1	78	0	122	1.26692565102712	1	0	0
172	1	12	40	1	77	0	122	1.29266010501306	1	0	0
173	1	95	113	1	76	0	122	0.742683946999023	1	0	0
174	1	1	98	0	75	0	120	0.749679486005334	0	0	0
175	1	44	2	1	78	0	120	0.947858664003434	0	0	0
176	0	24	58	0	81	0	120	0.907432846986922	1	0	0
177	1	15	68	1	80	0	120	0.883573621016694	0	0	0
178	1	95	123	1	83	0	122	0.741128077002941	1	0	0
179	0	83	114	1	82	0	120	1.31650757801253	1	0	0
180	1	25	25	1	81	0	120	0.756884331989568	0	0	0
181	0	42	24	1	84	0	120	0.77963982601068	1	0	0
182	0	69	85	1	83	0	120	0.744782185007352	1	0	0
183	0	10	101	0	82	0	120	0.792009608005174	1	0	0
184	1	41	125	1	81	0	120	0.917286607000278	0	0	0
185	1	35	64	1	84	0	120	0.717636568995658	0	0	0
186	1	148	61	1	87	0	122	2.11028296500444	1	0	0
187	1	65	57	0	86	0	122	0.831087903992739	1	0	0
188	1	44	60	0	85	0	120	1.17939511701115	0	0	0
189	0	60	67	1	87	0	120	0.904479555989383	1	0	0
190	1	120	122	1	86	0	122	1.79320657998323	1	0	0
191	1	68	142	1	86	0	122	0.934374745993409	1	0	0
192	1	16	18	1	85	0	122	1.06208566299756	1	0	0
193	0	1	110	0	84	0	120	1.05654887098353	1	0	0
194	1	93	120	0	83	0	122	1.09145892702509	1	0	0
195	1	111	57	1	82	0	120	1.5408512680151	0	0	0
196	0	55	126	1	85	0	120	0.548577779001789	1	0	0
197	0	58	116	1	84	0	120	0.658763206010917	1	0	0
198	0	99	106	1	83	0	120	1.09298180197948	1	0	0
199	1	19	12	1	82	0	122	1.90286332499818	1	0	0
200	1	103	144	1	81	0	120	5.16730221899343	0	0	0
201	0	107	114	1	84	0	120	2.12511825500405	1	0	0
202	0	108	41	0	81	0	120	0.696128520998172	1	0	0
203	1	124	117	0	79	0	122	0.865157517022453	1	0	0
204	0	9	73	0	76	0	120	0.587946154002566	1	0	0
205	1	73	96	0	74	0	120	0.873257704020943	0	0	0
206	1	25	42	0	81	0	120	0.835201162000885	0	0	0
207	0	139	134	0	89	0	120	0.822257366002304	1	0	0
208	0	92	72	0	87	0	120	0.674355783005012	1	0	0
209	0	90	124	1	84	0	120	0.772936483990634	1	0	0
210	1	105	97	1	82	0	122	0.738351571984822	1	0	0
211	0	87	29	1	80	0	120	0.810286738007562	1	0	0
212	0	93	114	1	78	0	120	0.638901749014622	1	0	0
213	1	28	8	1	76	0	122	0.794134461990325	1	0	0
214	1	109	135	1	74	0	122	0.687051968998276	1	0	0
215	0	100	136	0	72	0	120	1.28048597398447	1	0	0
216	1	75	56	1	70	0	122	1.35438063400215	1	0	0
217	0	93	37	0	68	0	120	0.672793875011848	1	0	0
218	0	43	82	0	66	0	120	0.762560463015689	1	0	0
219	1	117	57	1	64	0	122	0.808995830011554	1	0	0
220	1	101	24	1	62	0	122	1.05396623699926	1	0	0
221	1	150	71	1	60	0	122	0.712072121008532	1	0	0
222	0	144	120	0	58	0	120	0.984731411997927	1	0	0
223	1	74	114	0	56	0	120	10.1826540219772	0	0	0
224	0	55	44	1	62	0	120	0.820616445998894	1	0	0
225	1	55	113	1	60	0	122	0.850775780010736	1	0	0
226	0	6	104	0	58	0	120	2.78717554701143	1	0	0
227	1	70	72	0	57	0	122	0.792432004003786	1	0	0
228	1	116	84	0	55	0	120	1.15735828099423	0	0	0
229	0	4	140	0	60	0	120	0.716180393006653	1	0	0
230	1	69	139	0	58	0	122	1.08484548699926	1	0	0
231	1	79	19	0	57	0	122	1.46933823899599	1	0	0
232	0	52	30	0	55	0	120	1.30403993200161	1	0	0
233	0	82	16	0	54	0	120	0.752930345974164	1	0	0
234	0	86	91	0	52	0	120	1.32783759999438	1	0	0
235	0	87	148	1	50	0	122	1.09522489100345	0	0	0
236	0	131	61	1	55	0	120	0.784410281019518	1	0	0
237	0	120	102	1	54	0	120	1.30107287800638	1	0	0
238	1	37	113	1	52	0	122	1.16744724698947	1	0	0
239	1	65	131	1	51	0	122	1.42940930699115	1	0	0
240	1	116	97	1	49	0	120	1.20890772799612	0	0	0
241	0	36	142	0	53	0	120	1.04512500599958	1	0	0
242	1	114	147	0	52	0	120	1.09555013201316	0	0	0
243	1	37	78	1	56	0	120	3.36125549700228	0	0	0
244	1	139	12	0	60	0	120	0.839745363016846	0	0	0
245	1	45	81	1	64	0	120	1.05921480298275	0	0	0
246	0	59	112	0	69	0	120	0.710440971015487	1	0	0
247	1	93	52	1	67	0	122	0.838534639013233	1	0	0
248	0	89	14	1	66	0	120	0.778664087003563	1	0	0
249	1	77	150	1	65	0	122	2.66391356702661	1	0	0
250	0	85	109	0	63	0	120	0.625964707985986	1	0	0
251	0	142	20	1	62	0	120	0.773693897004705	1	0	0
252	1	63	43	1	61	0	122	1.19635898299748	1	0	0
253	0	16	78	0	60	0	120	0.673018585017417	1	0	0
254	1	69	104	1	58	0	122	0.946513308008434	1	0	0
255	0	64	115	1	57	0	120	0.953356012993027	1	0	0
256	1	120	63	1	56	0	120	1.03184126300039	0	0	0
257	0	84	141	1	59	0	120	0.995221334014786	1	0	0
258	1	108	67	1	58	0	122	0.799997601017822	1	0	0
259	1	76	10	1	57	0	122	1.07732893899083	1	0	0
260	1	119	127	0	56	0	122	1.49490886801505	1	0	0
261	1	84	89	0	55	0	122	3.64762228599284	1	0	0
262	1	19	42	0	54	0	122	1.01134164398536	1	0	0
263	0	27	131	0	53	0	120	0.783212348993402	1	0	0
264	1	141	102	0	52	0	122	1.81259918501019	1	0	0
265	0	137	13	0	51	0	120	1.49730181900668	1	0	0
266	1	111	4	0	50	0	120	2.3307939839724	0	0	0
267	0	93	93	0	53	0	120	0.713517336000223	1	0	0
268	0	63	86	0	52	0	120	2.63365756798885	1	0	0
269	0	39	138	0	51	0	120	1.30948740500025	1	0	0
270	0	79	133	0	50	0	120	0.870080043008784	1	0	0
271	1	17	84	0	49	0	122	1.43978787001106	1	0	0
272	0	109	70	1	48	0	120	1.53139716299484	1	0	0
273	0	133	41	0	47	0	120	1.4106104230159	1	0	0
274	0	32	15	1	46	0	120	0.647449489013525	1	0	0
275	1	46	89	0	45	0	122	1.53069730900461	1	0	0
276	1	103	86	0	44	0	122	1.0414142080117	1	0	0
277	0	6	15	0	43	0	120	2.17308307098574	1	0	0
278	1	15	144	0	42	0	120	2.03910167998401	0	0	0
279	0	63	127	0	45	0	120	1.22256329000811	1	0	0
280	1	69	81	0	44	0	122	0.723136467015138	1	0	0
281	1	9	59	0	43	0	122	0.986335416004295	1	0	0
282	1	43	12	1	42	0	122	0.691756379004801	1	0	0
283	0	144	88	1	41	0	120	0.888823896006215	1	0	0
284	1	130	147	1	40	0	120	1.17847854699357	0	0	0
285	1	150	128	0	43	0	122	1.05470706301276	1	0	0
286	0	148	9	0	42	0	120	0.681845022016205	1	0	0
287	1	93	92	1	41	0	122	1.17218856498948	1	0	0
288	0	7	4	1	40	0	120	0.873083607002627	1	0	0
289	1	144	83	1	40	0	122	1.08354750298895	1	0	0
290	1	85	10	1	39	0	120	4.60538319099578	0	0	0
291	1	86	122	0	41	0	120	1.21842822697363	0	0	0
292	0	66	82	1	44	0	120	0.750934702984523	1	0	0
293	1	9	72	0	43	0	122	1.73381213701214	1	0	0
294	1	144	34	1	42	0	122	0.757967551995534	1	0	0
295	1	20	8	0	41	0	122	0.980680676992051	1	0	0
296	1	51	122	1	40	0	122	9.23463642102433	1	0	0
297	1	30	14	0	40	0	120	1.35053458999027	0	0	0
298	1	96	17	1	42	0	122	0.718023042980349	1	0	0
299	1	85	69	0	41	0	122	1.07406722899759	1	0	0
300	1	65	150	1	40	0	122	1.27953398000682	1	0	0
301	1	94	131	1	40	0	120	2.1084512709931	0	0	0
302	1	142	28	1	48	0	122	1.96036409900989	1	0	0
303	0	94	137	0	45	0	120	0.940318745007971	1	0	0
304	1	139	100	0	43	0	122	0.869617274991469	1	0	0
305	1	93	99	1	41	0	120	2.61579905598774	0	0	0
306	0	84	148	0	48	0	120	0.720479559997329	1	0	0
307	1	95	131	1	46	0	122	0.86785040498944	1	0	0
308	0	120	56	0	44	0	122	0.97467205801513	0	0	0
309	1	129	81	1	50	0	122	0.612815799016971	1	0	0
310	1	96	2	0	48	0	122	1.01686297100969	1	0	0
311	1	129	120	0	46	0	122	0.653135117987404	1	0	0
312	1	117	32	0	44	0	120	2.42396739398828	0	0	0
313	0	133	92	0	50	0	120	1.20454761799192	1	0	0
314	1	77	52	1	48	0	120	1.21704461399349	0	0	0
315	0	89	105	1	54	0	120	1.12539465399459	1	0	0
316	1	18	97	0	52	0	122	1.04534512499231	1	0	0
317	1	119	56	1	50	0	120	0.791373821994057	0	0	0
318	0	63	84	1	56	0	120	1.18906209099805	1	0	0
319	0	148	76	0	54	0	120	1.20301944299717	1	0	0
320	1	132	9	0	52	0	122	1.29556787799811	1	0	0
321	0	34	136	0	51	0	120	1.08046541799558	1	0	0
322	1	55	18	0	49	0	122	1.25016815698473	1	0	0
323	0	100	102	0	47	0	120	0.977009919006377	1	0	0
324	0	81	82	0	46	0	120	1.13031768100336	1	0	0
325	1	80	22	1	44	0	122	0.672949226980563	1	0	0
326	0	16	83	0	43	0	120	1.05940653500147	1	0	0
327	0	92	47	0	41	0	120	0.950602096010698	1	0	0
328	0	71	81	1	40	0	120	1.3168380879797	1	0	0
329	1	67	37	1	38	0	122	1.09319422801491	1	0	0
330	1	144	87	0	37	0	120	0.893855592992622	0	0	0
331	1	16	12	1	41	0	122	0.791264219005825	1	0	0
332	0	83	30	0	40	0	120	1.17241044598632	1	0	0
333	0	25	1	1	38	0	120	0.794586261996301	1	0	0
334	0	102	64	1	37	0	120	1.73545542400097	1	0	0
335	1	51	72	0	35	0	122	1.3196670570178	1	0	0
336	1	129	143	1	34	0	120	4.51929743599612	0	0	0
337	0	122	23	1	38	0	120	4.4792938149767	1	0	0
338	0	35	110	1	37	0	120	0.849244541022927	1	0	0
339	1	33	36	1	35	0	122	4.03628115699394	1	0	0
340	1	46	145	1	34	0	120	1.04023374299868	0	0	0
341	1	149	140	0	38	0	120	1.84812799299834	0	0	0
342	1	149	11	1	42	0	120	0.789541030011605	0	0	0
343	0	2	63	1	46	0	120	1.18772178099607	1	0	0
344	1	138	147	1	44	0	122	1.00048329101992	1	0	0
345	0	145	53	0	43	0	120	0.621324781997828	1	0	0
346	1	137	42	1	42	0	122	0.648951269016834	1	0	0
347	0	128	68	0	41	0	120	0.908243796002353	1	0	0
348	0	116	23	1	40	0	122	2.39601843597484	0	0	0
349	0	52	17	0	43	0	120	0.881957876001252	1	0	0
350	1	74	32	1	42	0	122	2.0271828059922	1	0	0
351	0	115	84	0	41	0	122	0.840014843997778	0	0	0
352	0	81	110	1	44	0	120	0.730979107000167	1	0	0
353	1	149	14	1	43	0	122	2.18599126898334	1	0	0
354	0	11	150	1	42	0	120	0.751729862997308	1	0	0
355	1	78	137	0	41	0	122	0.854200991016114	1	0	0
356	1	146	97	1	40	0	120	0.697001247986918	0	0	0
357	0	77	141	1	43	0	120	0.849665714980802	1	0	0
358	1	117	63	1	42	0	120	0.925173660012661	0	0	0
359	0	17	26	1	45	0	120	0.965287696977612	1	0	0
360	1	56	22	1	44	0	120	1.48349705597502	0	0	0
361	0	124	106	1	47	0	120	0.772895050991792	1	0	0
362	1	76	97	0	46	0	120	1.62723600800382	0	0	0
363	0	100	144	1	49	0	120	1.46308784501161	1	0	0
364	0	15	47	0	48	0	120	0.745135752018541	1	0	0
365	0	52	51	1	47	0	120	0.863842165999813	1	0	0
366	0	86	85	1	46	0	120	0.730807971995091	1	0	0
367	0	34	122	0	45	0	120	0.882239270984428	1	0	0
368	0	135	109	1	44	0	120	0.923495335009648	1	0	0
369	1	28	60	1	43	0	122	0.752618093014462	1	0	0
370	1	95	141	0	42	0	122	0.626363321993267	1	0	0
371	0	40	60	0	41	0	120	0.742029974004254	1	0	0
372	1	57	120	0	40	0	122	1.35812555000302	1	0	0
373	0	15	60	0	40	0	120	1.02414537098957	1	0	0
374	1	13	89	0	39	0	120	1.19142169298721	0	0	0
375	0	49	45	0	41	0	120	1.82697461199132	1	0	0
376	1	115	56	1	41	0	122	1.50498836999759	1	0	0
377	1	5	8	0	40	0	122	0.793812012998387	1	0	0
378	0	59	8	0	39	0	122	0.6704024040082	0	0	0
379	1	37	29	1	41	0	120	1.0724914780003	0	0	0
380	1	33	95	0	44	0	122	0.73546025599353	1	0	0
381	0	12	132	0	43	0	120	0.777654745004838	1	0	0
382	1	18	70	1	42	0	122	0.719901715987362	1	0	0
383	1	95	128	0	41	0	122	0.823682987014763	1	0	0
384	1	134	34	1	41	0	122	0.699964744999306	1	0	0
385	1	70	142	0	40	0	122	2.10854241202469	1	0	0
386	1	9	86	0	39	0	122	0.821367174008628	1	0	0
387	0	141	20	0	38	0	120	0.633909987984225	1	0	0
388	1	99	130	0	37	0	122	1.27001949600526	1	0	0
389	1	17	24	0	36	0	120	0.744673847977538	0	0	0
390	1	98	47	1	39	0	122	0.679824885010021	1	0	0
391	1	22	124	1	38	0	122	0.842203451000387	1	0	0
392	0	104	44	0	37	0	120	0.821653674996924	1	0	0
393	1	30	135	1	36	0	122	1.20157434200519	1	0	0
394	1	100	69	1	36	0	120	1.35788919401239	0	0	0
395	0	103	14	0	38	0	120	0.916844315011986	1	0	0
396	1	54	117	1	37	0	122	1.18563606901444	1	0	0
397	1	105	114	0	36	0	120	1.57834174699383	0	0	0
398	0	128	12	1	39	0	122	0.808604265999747	0	0	0
399	0	54	60	1	41	0	122	0.956875015021069	0	0	0
400	0	106	44	1	43	0	120	0.69955487299012	1	0	0
401	1	41	92	0	42	0	120	0.712644062994514	0	0	0
402	1	107	63	0	50	0	122	0.523904370988021	1	0	0
403	1	65	149	1	47	0	122	0.649543289007852	1	0	0
404	0	123	16	0	45	0	122	0.805996476003202	0	0	0
405	0	101	43	0	52	0	120	0.643305036006495	1	0	0
406	1	81	73	1	50	0	120	1.31086270700325	0	0	0
407	0	44	32	1	56	0	122	1.566612412018	0	0	0
408	1	125	43	1	63	0	122	0.757943411008455	1	0	0
409	0	93	37	0	61	0	120	0.628390011988813	1	0	0
410	1	145	74	1	59	0	120	1.22426473701489	0	0	0
411	1	37	124	1	65	0	122	1.65187428201898	1	0	0
412	0	21	121	1	63	0	122	0.830418249999639	0	0	0
413	1	127	65	0	68	0	122	0.730021895986283	1	0	0
414	0	149	92	1	67	0	120	0.905258509010309	1	0	0
415	0	118	97	1	65	0	120	0.79457454601652	1	0	0
416	1	136	33	1	63	0	122	1.56784302700544	1	0	0
417	0	116	80	0	62	0	120	0.980162539024604	1	0	0
418	1	148	5	1	60	0	122	2.13924734600005	1	0	0
419	1	138	90	1	59	0	122	2.36249385398696	1	0	0
420	1	143	100	1	57	0	122	1.07353155201417	1	0	0
421	0	39	34	1	55	0	120	0.659110515989596	1	0	0
422	1	86	70	1	54	0	120	1.51815795799484	0	0	0
423	1	40	138	1	58	0	122	1.50180374202318	1	0	0
424	0	60	141	1	57	0	120	0.677958732994739	1	0	0
425	0	84	148	1	55	0	120	0.735882773995399	1	0	0
426	0	77	125	1	54	0	120	0.752100215991959	1	0	0
427	0	142	27	0	53	0	120	0.703151640016586	1	0	0
428	1	31	118	0	51	0	122	0.813108581991401	1	0	0
429	1	6	105	1	50	0	122	0.97306696799933	1	0	0
430	1	56	17	1	48	0	122	2.05874733600649	1	0	0
431	1	36	117	0	47	0	122	1.05308472900651	1	0	0
432	0	148	41	0	46	0	120	0.880652079009451	1	0	0
433	0	83	150	1	44	0	122	0.734966124990024	0	0	0
434	1	132	7	1	48	0	122	1.76836263600853	1	0	0
435	1	111	150	1	47	0	122	1.13162984797964	1	0	0
436	1	149	57	0	45	0	120	0.838642471993808	0	0	0
437	1	133	26	0	50	0	120	0.737796373985475	0	0	0
438	0	43	117	0	53	0	120	0.625311899988446	1	0	0
439	0	146	130	0	52	0	120	0.716997863026336	1	0	0
440	0	79	62	0	51	0	120	0.725168299017241	1	0	0
441	0	64	27	1	50	0	120	0.661513906990876	1	0	0
442	1	72	72	1	48	0	122	0.847239419003017	1	0	0
443	1	81	134	1	47	0	122	1.01839271100471	1	0	0
444	0	143	65	0	46	0	120	0.734881581010995	1	0	0
445	1	100	105	0	45	0	122	1.38241711398587	1	0	0
446	1	87	24	0	44	0	122	0.867579693993321	1	0	0
447	0	7	85	0	42	0	120	0.637498590978794	1	0	0
448	1	27	60	1	41	0	122	0.687981811992358	1	0	0
449	1	122	135	0	40	0	122	0.69026873097755	1	0	0
450	1	5	136	1	39	0	120	0.987348356982693	0	0	0
451	1	25	129	1	43	0	122	1.68590938299894	1	0	0
452	1	6	122	0	41	0	122	0.762488405016484	1	0	0
453	1	138	77	1	40	0	122	0.752625663997605	1	0	0
454	0	92	28	1	39	0	122	0.967956673994195	0	0	0
455	0	47	128	0	43	0	120	0.629680089012254	1	0	0
456	1	129	126	0	42	0	120	1.34450188599294	0	0	0
457	1	143	84	0	45	0	122	0.985009800991975	1	0	0
458	0	129	68	1	44	0	120	1.02217612601817	1	0	0
459	1	24	51	0	43	0	122	1.12996879799175	1	0	0
460	1	123	148	0	42	0	120	1.48106190699036	0	0	0
461	0	57	131	0	45	0	120	0.707180997007526	1	0	0
462	1	61	31	1	44	0	122	0.715800428995863	1	0	0
463	1	66	50	0	43	0	120	1.11605746301939	0	0	0
464	0	62	94	0	46	0	122	1.19597748402157	0	0	0
465	1	52	138	1	49	0	122	0.79272355500143	1	0	0
466	0	33	89	1	48	0	120	0.654080922016874	1	0	0
467	0	146	142	0	47	0	122	1.83327193500008	0	0	0
468	0	87	58	0	50	0	120	1.56453530400177	1	0	0
469	0	36	57	0	49	0	120	0.794854992011096	1	0	0
470	0	9	90	1	48	0	120	0.680168986000353	1	0	0
471	1	38	88	0	47	0	120	0.722042340988992	0	0	0
472	1	128	116	1	50	0	122	0.872303670999827	1	0	0
473	0	125	104	0	49	0	122	0.690171494003152	0	0	0
474	1	46	59	1	51	0	122	0.947341805003816	1	0	0
475	1	20	12	1	50	0	122	2.36139370300225	1	0	0
476	1	68	100	0	50	0	122	0.716743286990095	1	0	0
477	1	69	119	1	49	0	122	0.623846713016974	1	0	0
478	0	98	99	1	48	0	122	0.883708101027878	0	0	0
479	0	86	83	1	50	0	120	0.963306268997258	1	0	0
480	0	125	143	0	50	0	122	0.876189048984088	0	0	0
481	0	102	4	0	52	0	120	1.3341920489911	1	0	0
482	0	112	15	0	51	0	122	1.07814766099909	0	0	0
483	0	78	66	1	54	0	120	0.663952247996349	1	0	0
484	0	24	22	0	53	0	120	1.03884152398678	1	0	0
485	0	98	19	1	52	0	122	0.718176602007588	0	0	0
486	1	27	19	0	55	0	122	0.846143333998043	1	0	0
487	0	113	127	1	54	0	120	0.737557820015354	1	0	0
488	1	33	137	1	53	0	120	1.92082509500324	0	0	0
489	0	129	84	0	56	0	120	1.21635329897981	1	0	0
490	1	71	61	0	55	0	120	0.941337893978925	0	0	0
491	0	73	19	0	57	0	122	1.0685654800036	0	0	0
492	1	54	35	1	60	0	122	0.727352886024164	1	0	0
493	0	75	58	1	59	0	120	0.779805957019562	1	0	0
494	0	9	118	0	58	0	120	1.44525099199382	1	0	0
495	1	2	118	0	57	0	122	0.553002581000328	1	0	0
496	1	124	84	0	56	0	122	0.576587746996665	1	0	0
497	1	94	60	1	56	0	122	0.966427170991665	1	0	0
498	0	85	27	0	55	0	120	0.581099981995067	1	0	0
499	0	88	121	1	54	0	120	1.1548137459904	1	0	0
500	0	102	130	1	53	0	120	0.857151211006567	1	0	0
