Trial	Gender_Face1	Face1_nb	Face2_nb	Right_left_flip	Nb_Bubbles	Overlap_Target	Response	RT	Accuracy	Simi2Target	Trial_Reward
1	1	84	80	0	36	0	122	12.5352295499761	1	0	0
2	0	24	110	1	33	0	120	0.783513912931085	1	0	0
3	0	147	128	0	30	0	122	0.806198259000666	0	0	0
4	1	147	137	1	39	0	122	0.674134833039716	1	0	0
5	1	91	91	1	36	0	120	1.11601815198082	0	0	0
6	1	50	133	1	45	0	122	0.764221730991267	1	0	0
7	0	66	74	1	42	0	122	0.794488456915133	0	0	0
8	0	1	38	0	50	0	120	0.711982192937285	1	0	0
9	0	48	138	1	48	0	120	1.1369745740667	1	0	0
10	1	122	23	0	45	0	122	0.95977050496731	1	0	0
11	0	36	130	0	43	0	120	4.74253375409171	1	0	0
12	1	100	59	1	40	0	120	3.63061895803548	0	0	0
13	0	51	2	0	48	0	120	0.857693522935733	1	0	0
14	0	34	64	1	46	0	122	0.860245172982104	0	0	0
15	0	124	14	0	52	0	120	0.855572619941086	1	0	0
16	0	90	139	0	50	0	120	1.36909668601584	1	0	0
17	1	46	81	1	48	0	122	1.30410724901594	1	0	0
18	0	52	68	1	46	0	120	2.96033411601093	1	0	0
19	0	119	108	0	44	0	120	1.86358359002043	1	0	0
20	0	99	82	0	42	0	122	4.01772162294947	0	0	0
21	1	35	92	1	48	0	122	0.806632697000168	1	0	0
22	0	125	105	1	46	0	122	1.03480478795245	0	0	0
23	0	149	58	1	52	0	120	0.97463475400582	1	0	0
24	0	13	66	0	50	0	122	0.732445919071324	0	0	0
25	0	115	8	0	55	0	120	0.87602137203794	1	0	0
26	0	24	33	0	53	0	122	0.797412517946213	0	0	0
27	0	67	59	1	59	0	120	0.683154926053248	1	0	0
28	1	86	134	0	57	0	122	0.868110388051718	1	0	0
29	1	37	128	0	56	0	122	0.847187104984187	1	0	0
30	0	131	73	0	54	0	122	0.825488680042326	0	0	0
31	1	88	33	1	59	0	120	0.790009538992308	0	0	0
32	0	135	9	0	64	0	122	0.883330849930644	0	0	0
33	0	84	123	0	69	0	122	0.797334189992398	0	0	0
34	0	57	35	1	74	0	120	0.778338097035885	1	0	0
35	1	78	36	0	73	0	122	0.752250403049402	1	0	0
36	0	136	38	1	71	0	120	0.759386906051077	1	0	0
37	0	101	135	1	69	0	120	1.12632844096515	1	0	0
38	1	129	55	1	68	0	122	0.62217684998177	1	0	0
39	1	57	150	1	66	0	122	0.66613909706939	1	0	0
40	1	69	105	0	65	0	122	0.724077700055204	1	0	0
41	0	17	39	0	63	0	120	1.12463548500091	1	0	0
42	0	109	67	0	62	0	120	1.09269504703116	1	0	0
43	1	60	77	1	60	0	122	0.645758960978128	1	0	0
44	1	70	73	1	59	0	122	0.657589558977634	1	0	0
45	1	55	102	1	58	0	122	0.643750546034425	1	0	0
46	1	95	21	0	56	0	122	0.719153754995205	1	0	0
47	1	31	43	1	55	0	120	0.751646735938266	0	0	0
48	0	133	109	1	59	0	120	0.662300737923943	1	0	0
49	1	13	57	0	58	0	122	1.90372473397292	1	0	0
50	1	34	120	0	56	0	122	0.76979961595498	1	0	0
51	0	42	131	0	55	0	122	0.848014052957296	0	0	0
52	0	124	81	1	59	0	120	0.93875209800899	1	0	0
53	1	102	50	0	58	0	120	3.30710665893275	0	0	0
54	1	39	96	1	62	0	122	0.890619306010194	1	0	0
55	1	46	136	1	60	0	120	1.46042661298998	0	0	0
56	1	37	43	1	64	0	120	0.951522759045474	0	0	0
57	0	111	48	0	68	0	122	1.2940245589707	0	0	0
58	1	88	6	1	72	0	122	2.05665704596322	1	0	0
59	0	69	73	0	71	0	120	0.755308453924954	1	0	0
60	1	139	82	1	69	0	122	3.40191053994931	1	0	0
61	1	103	13	0	68	0	120	1.21439479396213	0	0	0
62	1	70	94	0	72	0	120	4.41913960909005	0	0	0
63	0	106	21	1	76	0	120	1.01469664694741	1	0	0
64	1	120	83	1	74	0	120	1.49097478401382	0	0	0
65	1	112	8	0	78	0	122	2.96374103205744	1	0	0
66	0	2	131	1	77	0	120	1.27922438108362	1	0	0
67	0	102	58	1	76	0	120	1.18039406801108	1	0	0
68	1	10	79	0	75	0	122	0.929881129064597	1	0	0
69	0	133	17	0	73	0	120	0.841143061988987	1	0	0
70	0	74	55	1	72	0	120	1.68510639097076	1	0	0
71	1	129	8	1	71	0	122	0.927011466003023	1	0	0
72	0	33	5	0	70	0	120	0.734565787948668	1	0	0
73	0	15	101	0	69	0	122	0.6860329459887	0	0	0
74	0	63	49	1	72	0	120	0.83118188905064	1	0	0
75	0	37	148	0	71	0	120	1.17102976399474	1	0	0
76	0	129	65	1	70	0	120	0.857227548956871	1	0	0
77	0	146	19	1	69	0	122	0.899071588995866	0	0	0
78	1	116	68	0	72	0	122	0.884234052966349	1	0	0
79	1	67	150	1	71	0	122	0.8933550309157	1	0	0
80	1	68	113	0	70	0	122	0.862963865976781	1	0	0
81	0	41	37	1	69	0	120	0.77678517496679	1	0	0
82	0	9	140	0	68	0	120	0.895376991014928	1	0	0
83	1	92	117	0	67	0	122	0.768786552012898	1	0	0
84	1	69	111	1	66	0	122	0.734377718996257	1	0	0
85	0	52	135	0	65	0	120	0.782748376019299	1	0	0
86	0	104	116	0	64	0	120	0.740652087959461	1	0	0
87	0	55	147	0	63	0	122	0.94002236193046	0	0	0
88	0	114	63	0	66	0	122	0.891828090068884	0	0	0
89	0	24	64	0	69	0	120	0.797079107956961	1	0	0
90	0	89	21	0	68	0	122	1.04204373899847	0	0	0
91	1	135	98	1	71	0	122	1.10728949506301	1	0	0
92	1	39	145	1	70	0	120	0.942008264013566	0	0	0
93	0	53	24	0	73	0	120	0.909853421966545	1	0	0
94	0	31	22	1	72	0	120	0.886463340022601	1	0	0
95	0	131	89	1	71	0	120	2.71710888796952	1	0	0
96	0	76	90	0	70	0	120	0.726523102028295	1	0	0
97	1	87	63	1	69	0	120	1.13554008502979	0	0	0
98	1	129	146	1	72	0	122	1.17545155494008	1	0	0
99	1	48	138	0	71	0	120	0.861435164930299	0	0	0
100	0	79	101	0	74	0	120	0.928153535001911	1	0	0
101	0	128	52	1	73	0	120	2.24138305394445	1	0	0
102	0	9	107	1	69	0	120	0.728717645048164	1	0	0
103	1	7	22	1	64	0	122	0.553286500973627	1	0	0
104	0	132	79	1	60	0	120	0.888264097040519	1	0	0
105	1	49	62	0	56	0	122	0.857937467982993	1	0	0
106	0	132	70	0	52	0	120	1.32904609397519	1	0	0
107	1	72	83	1	47	0	122	1.9955167529406	1	0	0
108	1	81	130	1	43	0	122	0.873181469039991	1	0	0
109	0	30	37	1	39	0	120	0.730963432928547	1	0	0
110	0	81	142	1	35	0	120	1.66783272509929	1	0	0
111	0	3	13	0	31	0	120	1.01394214399625	1	0	0
112	0	98	18	1	27	0	120	1.49914835288655	1	0	0
113	1	102	26	1	23	0	120	1.8357203360647	0	0	0
114	1	146	105	0	35	0	120	0.939527836977504	0	0	0
115	1	39	8	0	47	0	120	0.942225737031549	0	0	0
116	1	143	94	0	57	0	120	1.02959907904733	0	0	0
117	1	124	35	0	68	0	122	0.897647564997897	1	0	0
118	1	143	69	0	64	0	122	1.33073589403648	1	0	0
119	0	56	77	1	61	0	120	0.706851082970388	1	0	0
120	0	28	15	1	58	0	120	0.746822514920495	1	0	0
121	1	1	3	0	55	0	122	0.794142175000161	1	0	0
122	1	51	81	1	51	0	122	0.688205432030372	1	0	0
123	0	49	135	0	48	0	122	0.801172773935832	0	0	0
124	1	113	79	0	57	0	122	0.85364775499329	1	0	0
125	0	128	50	1	54	0	120	0.937205683090724	1	0	0
126	1	111	73	1	51	0	122	0.864575103973038	1	0	0
127	1	75	34	1	48	0	122	0.842879922944121	1	0	0
128	1	17	33	0	46	0	122	0.830446989042684	1	0	0
129	1	91	62	0	43	0	122	0.970139769953676	1	0	0
130	1	102	22	0	40	0	120	0.775994479074143	0	0	0
131	0	102	140	1	49	0	122	1.04550612496678	0	0	0
132	0	130	125	1	57	0	122	0.785385415074416	0	0	0
133	0	67	90	1	64	0	120	0.783090858021751	1	0	0
134	0	6	4	0	62	0	120	1.02855546597857	1	0	0
135	1	66	35	1	59	0	120	1.31713581096847	0	0	0
136	0	118	118	0	67	0	120	1.01719469495583	1	0	0
137	0	74	46	1	65	0	120	2.61269025504589	1	0	0
138	1	117	53	1	62	0	122	0.641964599955827	1	0	0
139	0	114	26	1	60	0	122	3.25363356305752	0	0	0
140	0	26	107	1	67	0	120	1.9118224439444	1	0	0
141	0	116	69	0	65	0	120	0.936255943030119	1	0	0
142	0	14	13	0	63	0	120	0.928155058994889	1	0	0
143	0	30	6	1	60	0	120	1.56043412501458	1	0	0
144	0	15	91	1	58	0	122	0.966590697993524	0	0	0
145	1	85	47	0	65	0	122	0.796782155055553	1	0	0
146	1	96	45	0	62	0	122	0.786746983998455	1	0	0
147	1	34	19	1	60	0	122	0.895535442978144	1	0	0
148	1	132	39	0	58	0	122	0.704856866039336	1	0	0
149	0	117	125	0	56	0	122	0.817648164927959	0	0	0
150	0	67	54	0	62	0	120	1.52599433099385	1	0	0
151	1	136	70	1	60	0	122	0.726164872990921	1	0	0
152	1	27	112	0	58	0	122	0.990276674041525	1	0	0
153	0	11	2	0	56	0	120	0.85893531399779	1	0	0
154	1	81	106	1	54	0	122	0.846038639079779	1	0	0
155	1	26	77	0	52	0	122	0.721001668018289	1	0	0
156	1	40	66	0	50	0	120	0.713400515960529	0	0	0
157	1	26	45	1	56	0	122	1.33023249800317	1	0	0
158	1	81	110	0	54	0	122	1.11380582698621	1	0	0
159	0	53	53	0	52	0	122	4.24229318101425	0	0	0
160	1	72	141	0	58	0	120	0.861793288961053	0	0	0
161	0	141	76	0	63	0	120	0.88031213497743	1	0	0
162	1	78	72	0	61	0	122	0.889835332985967	1	0	0
163	1	7	78	0	60	0	122	0.883381266961806	1	0	0
164	1	121	21	0	58	0	122	0.948384210001677	1	0	0
165	1	133	94	1	56	0	120	1.11564222408924	0	0	0
166	0	108	89	1	61	0	120	1.05941949610133	1	0	0
167	0	2	85	1	59	0	122	1.03078409703448	0	0	0
168	0	112	122	0	65	0	120	0.7459864129778	1	0	0
169	0	20	34	1	63	0	122	0.776809114031494	0	0	0
170	0	49	144	1	68	0	120	0.90336307301186	1	0	0
171	1	72	83	1	67	0	122	0.736034616013058	1	0	0
172	1	150	73	0	65	0	120	1.59121926198713	0	0	0
173	1	41	53	1	70	0	120	0.884844554006122	0	0	0
174	0	107	22	0	75	0	120	0.822265146998689	1	0	0
175	1	59	72	0	74	0	120	0.775078598060645	0	0	0
176	0	114	43	1	79	0	120	0.791865114937536	1	0	0
177	0	24	22	1	77	0	120	0.861186102032661	1	0	0
178	0	35	53	0	75	0	120	1.28055699099787	1	0	0
179	1	116	47	1	74	0	120	1.22577420598827	0	0	0
180	1	105	131	1	79	0	122	1.04592017293908	1	0	0
181	1	98	44	1	77	0	120	1.48932755889837	0	0	0
182	1	29	107	0	82	0	120	1.09871010307688	0	0	0
183	0	119	43	0	87	0	120	0.931322176009417	1	0	0
184	0	59	18	0	85	0	120	1.06702547497116	1	0	0
185	0	146	109	0	84	0	122	0.677017993992195	0	0	0
186	1	61	80	0	88	0	122	0.814991626073606	1	0	0
187	0	118	100	1	87	0	122	2.73108553292695	0	0	0
188	1	16	114	1	92	0	120	0.970423511927947	0	0	0
189	1	23	121	0	97	0	122	1.27363726799376	1	0	0
190	1	20	72	1	95	0	122	1.31554253399372	1	0	0
191	0	7	20	1	93	0	120	0.787695373990573	1	0	0
192	1	14	34	0	92	0	120	1.44111987506039	0	0	0
193	1	139	127	0	96	0	122	1.29288530594204	1	0	0
194	0	35	77	1	95	0	120	0.9337482820265	1	0	0
195	0	32	84	0	93	0	120	1.03771933203097	1	0	0
196	1	28	92	1	92	0	122	0.785518576973118	1	0	0
197	1	39	125	1	90	0	120	1.0303851159988	0	0	0
198	1	145	26	1	95	0	122	1.01867305196356	1	0	0
199	0	57	38	1	93	0	120	0.934203031938523	1	0	0
200	1	121	53	0	92	0	122	0.646056817960925	1	0	0
201	0	7	145	1	90	0	120	4.57128761801869	1	0	0
202	0	114	86	1	87	0	120	0.782973684021272	1	0	0
203	0	81	122	0	85	0	120	0.980930928955786	1	0	0
204	0	86	17	0	82	0	120	0.866334541933611	1	0	0
205	1	73	79	0	80	0	122	0.696373973041773	1	0	0
206	1	103	111	1	77	0	122	0.958568662987091	1	0	0
207	1	9	71	1	75	0	122	0.797988331061788	1	0	0
208	0	59	21	0	72	0	122	0.888014685013331	0	0	0
209	0	94	109	0	80	0	122	0.923906219075434	0	0	0
210	0	80	4	1	87	0	120	0.83675077103544	1	0	0
211	0	37	129	1	85	0	120	1.07950100395828	1	0	0
212	1	7	65	0	83	0	122	3.36222598992754	1	0	0
213	1	65	49	1	80	0	122	7.41655205900315	1	0	0
214	0	50	26	1	78	0	120	1.93298934597988	1	0	0
215	1	6	99	1	76	0	122	3.1418876380194	1	0	0
216	1	136	2	0	74	0	122	1.80472857400309	1	0	0
217	1	71	121	1	72	0	122	1.56101894204039	1	0	0
218	0	105	11	0	70	0	120	0.729493241989985	1	0	0
219	0	1	142	1	68	0	120	1.64292821707204	1	0	0
220	1	142	123	1	66	0	122	2.03441283502616	1	0	0
221	1	69	69	0	64	0	122	0.984045024029911	1	0	0
222	1	64	141	1	62	0	120	0.898374674026854	0	0	0
223	1	69	111	0	68	0	122	0.791730177938007	1	0	0
224	0	64	37	0	66	0	120	3.01232696394436	1	0	0
225	0	100	1	0	64	0	120	0.912520053097978	1	0	0
226	0	37	144	0	62	0	120	3.28965767310001	1	0	0
227	0	16	139	1	61	0	120	2.47180327295791	1	0	0
228	1	77	21	1	59	0	120	4.42133573093452	0	0	0
229	1	103	144	0	64	0	120	0.784837953979149	0	0	0
230	1	112	61	0	70	0	120	3.15876614896115	0	0	0
231	1	75	85	0	75	0	122	0.750785902957432	1	0	0
232	1	44	33	1	73	0	120	2.98999828298111	0	0	0
233	0	102	75	1	78	0	120	4.18637973896693	1	0	0
234	0	42	25	0	76	0	120	1.46527915098704	1	0	0
235	1	1	97	0	75	0	122	1.10766361095011	1	0	0
236	0	91	142	0	73	0	120	1.10039247095119	1	0	0
237	1	85	150	1	72	0	122	1.06990963104181	1	0	0
238	1	125	98	1	70	0	120	3.1642226530239	0	0	0
239	1	15	88	0	75	0	120	3.39139611995779	0	0	0
240	1	41	144	1	79	0	122	6.0011842250824	1	0	0
241	1	65	136	0	78	0	122	2.40206461399794	1	0	0
242	1	88	58	0	76	0	122	7.11054009199142	1	0	0
243	1	47	131	1	75	0	122	0.855447755078785	1	0	0
244	0	6	44	0	73	0	120	1.29050839494448	1	0	0
245	1	20	32	0	72	0	122	0.83855065505486	1	0	0
246	1	45	39	1	71	0	120	8.80742668290623	0	0	0
247	1	53	126	0	75	0	122	0.788326896028593	1	0	0
248	0	26	34	1	73	0	120	3.43484793405514	1	0	0
249	0	148	50	0	72	0	120	5.61971386405639	1	0	0
250	0	144	127	1	71	0	120	1.03726214997005	1	0	0
251	0	138	61	1	70	0	120	0.779866543016396	1	0	0
252	1	133	146	1	68	0	122	1.03292003599927	1	0	0
253	0	38	26	1	67	0	120	1.36202189396136	1	0	0
254	1	106	47	1	66	0	120	2.44413667591289	0	0	0
255	0	75	46	1	70	0	120	0.807744362973608	1	0	0
256	1	46	145	0	68	0	120	2.80371838703286	0	0	0
257	0	69	77	1	72	0	120	0.800870005972683	1	0	0
258	0	8	129	1	71	0	120	2.27012252900749	1	0	0
259	0	111	134	1	69	0	122	3.33577736699954	0	0	0
260	0	73	106	0	73	0	120	1.39222031494137	1	0	0
261	1	26	26	0	72	0	122	0.973366227000952	1	0	0
262	1	106	44	0	71	0	122	1.68441797199193	1	0	0
263	0	17	91	1	69	0	120	1.52538672299124	1	0	0
264	1	143	96	1	68	0	122	1.15822431701235	1	0	0
265	0	31	116	1	67	0	120	0.98495388997253	1	0	0
266	1	128	137	0	66	0	122	1.11543426208664	1	0	0
267	1	136	142	1	65	0	122	1.05624823109247	1	0	0
268	1	15	86	1	64	0	120	1.31032611604314	0	0	0
269	0	133	132	0	67	0	120	3.20680863794405	1	0	0
270	0	113	14	1	66	0	120	2.52335634001065	1	0	0
271	0	118	52	1	65	0	120	1.32846217998303	1	0	0
272	0	13	108	1	64	0	122	4.13179160701111	0	0	0
273	0	77	150	0	67	0	120	0.827883535064757	1	0	0
274	1	35	87	1	66	0	120	2.2962707899278	0	0	0
275	0	128	106	0	69	0	120	0.897597492905334	1	0	0
276	1	6	63	1	68	0	122	1.12285213498399	1	0	0
277	0	93	102	0	67	0	120	2.7312032879563	1	0	0
278	0	87	67	0	66	0	122	2.20969372091349	0	0	0
279	1	47	10	0	69	0	122	0.798421681975015	1	0	0
280	1	98	129	1	68	0	122	0.755487395916134	1	0	0
281	0	147	16	1	67	0	120	1.41123423201498	1	0	0
282	1	53	106	0	66	0	120	4.45607303699944	0	0	0
283	1	46	135	0	69	0	120	6.21878366405144	0	0	0
284	1	88	90	1	72	0	120	1.0540834730491	0	0	0
285	1	83	6	1	75	0	120	12.0347239570692	0	0	0
286	1	53	139	0	77	0	122	1.91821692790836	1	0	0
287	0	100	142	0	77	0	120	1.31211329600774	1	0	0
288	1	119	16	1	76	0	122	1.66398535401095	1	0	0
289	1	19	13	0	75	0	120	2.65029814792797	0	0	0
290	1	80	75	1	77	0	122	0.963758109021001	1	0	0
291	1	140	65	1	76	0	122	0.961159739992581	1	0	0
292	0	112	4	1	76	0	120	0.98733553790953	1	0	0
293	1	48	75	0	75	0	120	2.31328488793224	0	0	0
294	0	60	79	0	77	0	120	1.25907740893308	1	0	0
295	1	56	6	1	76	0	120	1.86169989500195	0	0	0
296	1	11	37	1	79	0	120	1.48825438809581	0	0	0
297	1	9	95	1	82	0	120	4.62491647701245	0	0	0
298	1	67	67	1	84	0	122	0.693700700998306	1	0	0
299	0	143	74	0	83	0	120	4.53532480006106	1	0	0
300	1	4	70	0	83	0	120	1.82313649903517	0	0	0
301	1	91	105	0	83	0	122	1.68225862900726	1	0	0
302	0	82	134	0	80	0	120	0.786052668001503	1	0	0
303	1	4	13	0	77	0	120	0.952334605972283	0	0	0
304	0	143	138	0	86	0	120	1.42212789005134	1	0	0
305	1	112	90	1	83	0	122	1.05091784289107	1	0	0
306	1	120	102	1	81	0	120	0.766066711046733	0	0	0
307	1	7	14	0	89	0	122	0.971748645999469	1	0	0
308	1	72	135	0	86	0	122	1.09069010301027	1	0	0
309	0	132	94	1	84	0	120	1.53953430906404	1	0	0
310	0	120	83	1	82	0	120	1.28406496997923	1	0	0
311	1	120	115	1	79	0	122	0.853074957965873	1	0	0
312	1	33	83	1	77	0	122	0.871774006984197	1	0	0
313	1	87	92	0	75	0	122	0.890243162051775	1	0	0
314	1	124	124	1	72	0	122	0.980220139957964	1	0	0
315	1	111	2	1	70	0	120	1.15415106492583	0	0	0
316	1	77	44	1	77	0	122	0.937115341075696	1	0	0
317	1	145	134	1	75	0	122	0.728284111013636	1	0	0
318	1	83	60	1	73	0	122	6.08898091700394	1	0	0
319	1	50	32	1	70	0	120	0.993845888064243	0	0	0
320	0	143	146	1	77	0	122	1.34370469907299	0	0	0
321	0	110	130	0	83	0	120	5.87881932407618	1	0	0
322	0	128	149	0	81	0	120	1.11385099496692	1	0	0
323	0	116	45	1	79	0	120	0.825644382974133	1	0	0
324	1	108	20	1	77	0	122	2.87003888306208	1	0	0
325	0	106	138	1	75	0	122	4.21652983292006	0	0	0
326	0	14	102	1	81	0	122	1.0283631880302	0	0	0
327	0	95	74	0	87	0	120	0.871882181963883	1	0	0
328	1	130	83	0	85	0	122	2.63409060600679	1	0	0
329	0	112	11	1	83	0	120	2.6134855078999	1	0	0
330	0	140	26	0	81	0	120	2.41899769799784	1	0	0
331	0	117	45	1	80	0	120	11.8943793679355	1	0	0
332	1	27	124	1	78	0	122	0.832465723040514	1	0	0
333	0	100	37	1	76	0	120	0.939578272053041	1	0	0
334	0	119	63	1	75	0	122	3.21136118704453	0	0	0
335	1	66	127	1	80	0	122	3.59202034201007	1	0	0
336	0	106	127	1	78	0	120	1.04572293302044	1	0	0
337	0	38	10	0	76	0	120	1.13644228200428	1	0	0
338	0	111	36	0	75	0	120	1.01667872001417	1	0	0
339	0	48	118	1	73	0	122	1.00548383302521	0	0	0
340	0	67	9	0	78	0	122	1.25108908605762	0	0	0
341	1	138	65	0	83	0	122	0.8209267599741	1	0	0
342	0	17	33	0	81	0	120	0.802907063043676	1	0	0
343	1	150	87	1	80	0	120	0.927658161032014	0	0	0
344	0	104	100	0	84	0	120	0.775810643099248	1	0	0
345	1	138	93	1	83	0	122	1.0055899200961	1	0	0
346	1	119	39	0	81	0	120	0.8426145989215	0	0	0
347	0	63	20	0	85	0	122	1.05316421599127	0	0	0
348	0	119	145	1	90	0	120	0.83086689200718	1	0	0
349	0	25	84	1	88	0	120	3.14731817797292	1	0	0
350	1	4	142	1	87	0	122	0.666398577042855	1	0	0
351	1	138	43	1	85	0	122	1.4849174360279	1	0	0
352	0	136	29	0	84	0	120	0.766823980025947	1	0	0
353	0	79	52	0	83	0	120	0.845077486010268	1	0	0
354	1	148	100	0	81	0	122	0.792149725020863	1	0	0
355	1	104	66	0	80	0	120	1.06940343196038	0	0	0
356	1	109	135	0	84	0	120	1.03987222199794	0	0	0
357	1	17	136	1	88	0	122	1.18749199993908	1	0	0
358	0	142	124	0	87	0	120	1.88047669804655	1	0	0
359	1	36	150	0	85	0	122	0.698939813068137	1	0	0
360	1	33	108	1	84	0	122	1.12333115690853	1	0	0
361	1	23	11	1	83	0	122	0.900143233011477	1	0	0
362	0	106	14	1	82	0	120	0.988868467975408	1	0	0
363	0	23	111	1	81	0	120	0.890917164972052	1	0	0
364	0	75	13	1	79	0	120	0.957232572021894	1	0	0
365	0	25	32	1	78	0	122	0.964142567943782	0	0	0
366	0	36	13	0	82	0	120	1.0263997130096	1	0	0
367	0	55	26	0	80	0	120	1.28634539106861	1	0	0
368	0	100	20	0	79	0	120	0.871408446924761	1	0	0
369	0	83	39	0	78	0	122	1.06668773596175	0	0	0
370	0	2	15	1	81	0	120	2.43666084192228	1	0	0
371	1	109	9	0	80	0	122	0.85566113400273	1	0	0
372	1	53	82	0	79	0	120	0.947211561026052	0	0	0
373	0	138	101	1	82	0	120	1.33786034805235	1	0	0
374	0	51	116	1	81	0	120	0.73726273002103	1	0	0
375	0	61	89	1	80	0	120	1.27584886597469	1	0	0
376	0	65	106	0	79	0	120	0.931332991924137	1	0	0
377	0	18	43	0	78	0	122	0.923022169037722	0	0	0
378	1	55	138	1	81	0	122	0.779380878084339	1	0	0
379	0	147	93	0	80	0	120	0.825268408982083	1	0	0
380	1	19	126	0	79	0	122	0.796897633932531	1	0	0
381	1	75	148	0	78	0	122	0.864134963019751	1	0	0
382	1	19	97	0	77	0	122	1.06069768802263	1	0	0
383	1	146	40	1	76	0	120	0.839473424013704	0	0	0
384	0	25	27	0	79	0	122	0.786901487968862	0	0	0
385	1	86	99	0	82	0	122	2.72021643701009	1	0	0
386	0	52	30	1	81	0	120	1.16779680293985	1	0	0
387	1	18	46	1	80	0	122	0.82205137994606	1	0	0
388	0	14	44	0	79	0	120	1.01021766499616	1	0	0
389	1	74	54	0	78	0	120	1.03017295489553	0	0	0
390	0	12	2	0	81	0	120	0.842784146079794	1	0	0
391	0	66	82	0	80	0	120	0.89444112603087	1	0	0
392	1	138	87	0	79	0	122	1.07181437802501	1	0	0
393	0	56	102	1	78	0	120	0.825934760039672	1	0	0
394	0	118	138	1	77	0	120	0.886290375958197	1	0	0
395	1	27	65	0	76	0	122	0.815251811989583	1	0	0
396	1	29	116	0	75	0	122	1.27568092092406	1	0	0
397	1	135	132	1	75	0	122	0.782207246054895	1	0	0
398	1	78	35	1	74	0	122	0.819038533954881	1	0	0
399	1	125	143	1	73	0	120	0.871956951101311	0	0	0
400	0	85	143	1	75	0	120	0.801835383987054	1	0	0
401	0	123	102	1	74	0	122	4.73456957191229	0	0	0
402	1	123	14	0	82	0	122	0.63702193798963	1	0	0
403	0	82	141	0	79	0	120	1.35989608697128	1	0	0
404	0	1	103	1	77	0	122	1.43809523596428	0	0	0
405	0	19	38	1	84	0	120	1.23366154404357	1	0	0
406	0	92	111	0	82	0	120	2.23736649600323	1	0	0
407	1	68	136	1	80	0	122	0.824643364991061	1	0	0
408	1	148	54	1	78	0	120	0.764408892951906	0	0	0
409	1	94	96	0	85	0	120	0.595264857984148	0	0	0
410	0	75	109	1	91	0	120	0.672920131008141	1	0	0
411	1	143	60	0	89	0	122	2.72250996297225	1	0	0
412	1	108	81	1	87	0	122	1.81893052801024	1	0	0
413	1	119	10	0	85	0	120	0.710821963031776	0	0	0
414	1	149	91	0	91	0	120	1.10360298794694	0	0	0
415	1	142	73	1	96	0	122	0.86368411895819	1	0	0
416	0	81	22	1	94	0	120	0.650577355991118	1	0	0
417	0	57	149	1	93	0	120	0.733889276976697	1	0	0
418	0	133	34	0	91	0	120	0.805515517946333	1	0	0
419	0	8	42	1	89	0	120	0.610913435928524	1	0	0
420	1	135	76	1	88	0	122	1.89565254701301	1	0	0
421	1	32	70	1	86	0	120	0.872825548052788	0	0	0
422	1	15	4	1	91	0	120	1.81916194292717	0	0	0
423	0	121	136	0	96	0	120	0.663001773064025	1	0	0
424	0	75	59	0	94	0	120	0.841759826987982	1	0	0
425	1	48	32	0	93	0	122	0.669121496030129	1	0	0
426	0	132	101	1	91	0	120	2.97604714008048	1	0	0
427	0	29	67	0	90	0	120	1.00577634293586	1	0	0
428	1	29	35	0	88	0	120	1.61064681899734	0	0	0
429	1	104	93	0	92	0	122	0.695433332002722	1	0	0
430	0	15	62	0	91	0	122	1.02460766304284	0	0	0
431	1	8	118	1	95	0	122	0.621370306005701	1	0	0
432	0	70	137	1	94	0	122	1.01321835198905	0	0	0
433	0	64	97	0	98	0	122	1.48604036902543	0	0	0
434	0	119	6	1	102	0	120	0.751380043919198	1	0	0
435	1	76	71	0	101	0	122	0.742289668996818	1	0	0
436	1	42	93	1	99	0	120	2.4770764040295	0	0	0
437	1	131	128	1	103	0	122	0.959531111991964	1	0	0
438	0	7	36	0	102	0	120	1.31062912603375	1	0	0
439	1	140	44	0	101	0	122	0.835435412009247	1	0	0
440	0	101	11	0	99	0	122	3.15433547506109	0	0	0
441	1	143	144	0	103	0	122	0.673381343949586	1	0	0
442	1	53	29	1	102	0	122	0.770674136001617	1	0	0
443	1	19	67	0	100	0	122	0.753899403964169	1	0	0
444	1	18	1	1	99	0	122	0.592699758009985	1	0	0
445	1	141	96	1	98	0	122	0.725914234062657	1	0	0
446	0	80	82	1	97	0	120	0.781305202050135	1	0	0
447	0	60	39	1	96	0	122	0.579572002054192	0	0	0
448	1	50	12	0	99	0	122	0.633768105995841	1	0	0
449	1	141	140	1	98	0	122	0.948030591011047	1	0	0
450	0	20	74	0	97	0	122	0.972829658072442	0	0	0
451	0	53	3	0	100	0	122	0.810523502994329	0	0	0
452	1	62	114	0	104	0	122	0.582835230976343	1	0	0
453	1	8	40	0	103	0	120	0.920900656026788	0	0	0
454	0	33	127	1	106	0	122	0.604626185959205	0	0	0
455	1	81	21	1	109	0	122	0.753092963946983	1	0	0
456	0	76	73	0	108	0	120	0.759854628937319	1	0	0
457	1	84	60	0	107	0	122	0.671036164043471	1	0	0
458	0	102	25	1	106	0	122	1.11313784099184	0	0	0
459	1	139	120	1	109	0	120	1.60995897394605	0	0	0
460	0	114	25	1	113	0	120	0.750294866971672	1	0	0
461	0	23	39	0	112	0	120	0.974858168046921	1	0	0
462	0	38	104	1	111	0	120	1.85052516695578	1	0	0
463	1	102	54	0	109	0	122	1.02997224207502	1	0	0
464	1	39	46	1	108	0	122	1.12990447401535	1	0	0
465	0	135	28	1	108	0	120	0.778144445037469	1	0	0
466	1	78	65	0	107	0	122	0.856087655061856	1	0	0
467	1	29	17	0	106	0	122	1.45124703890178	1	0	0
468	1	127	62	0	105	0	120	1.37443827907555	0	0	0
469	0	32	25	1	107	0	122	0.643652573926374	0	0	0
470	1	138	122	1	110	0	122	1.00794201705139	1	0	0
471	0	131	96	1	109	0	120	0.676249010954052	1	0	0
472	1	54	100	1	108	0	122	0.710340406978503	1	0	0
473	0	83	92	0	108	0	120	0.959061841014773	1	0	0
474	0	100	43	0	107	0	120	1.36624217999633	1	0	0
475	1	46	54	0	106	0	120	1.20451784995385	0	0	0
476	0	124	133	1	108	0	120	0.941607234999537	1	0	0
477	0	112	87	0	107	0	120	0.984597936971113	1	0	0
478	0	40	42	0	107	0	120	1.07526077399962	1	0	0
479	0	130	31	0	106	0	120	0.60074926505331	1	0	0
480	1	98	14	0	105	0	122	0.750071378075518	1	0	0
481	1	5	38	0	104	0	122	0.668339605093934	1	0	0
482	0	113	97	0	103	0	120	0.703489760053344	1	0	0
483	1	49	63	0	102	0	122	0.783653318998404	1	0	0
484	1	84	69	0	101	0	122	0.836887795943767	1	0	0
485	0	114	92	0	101	0	122	0.793011203058995	0	0	0
486	0	143	145	0	103	0	122	0.894744875025935	0	0	0
487	0	40	11	0	106	0	120	0.568124648998491	1	0	0
488	1	38	49	0	105	0	122	0.685751996934414	1	0	0
489	0	93	7	1	104	0	122	0.816459154011682	0	0	0
490	1	94	146	1	106	0	122	0.812031178968027	1	0	0
491	0	48	125	1	106	0	120	0.704466658993624	1	0	0
492	0	129	123	0	105	0	120	1.06995889404789	1	0	0
493	0	134	11	0	104	0	122	0.971336863934994	0	0	0
494	1	58	93	1	106	0	122	0.577911579981446	1	0	0
495	0	98	106	0	105	0	122	1.00010630197357	0	0	0
496	1	97	20	1	108	0	122	0.580761795979924	1	0	0
497	0	49	143	0	107	0	122	0.80195995606482	0	0	0
498	0	111	116	0	109	0	120	0.823724607937038	1	0	0
499	1	12	121	1	108	0	122	0.652208324987441	1	0	0
500	1	77	115	0	108	0	122	0.631461675046012	1	0	0
