Trial	Gender_Face1	Face1_nb	Face2_nb	Right_left_flip	Nb_Bubbles	Overlap_Target	Response	RT	Accuracy	Simi2Target	Trial_Reward
1	1	25	75	0	32	0	120	1.39464331115596	0	0	0
2	0	82	147	1	40	0	120	0.692869072081521	1	0	0
3	0	34	116	1	37	0	120	0.844526486005634	1	0	0
4	0	104	92	0	35	0	120	0.698121122084558	1	0	0
5	1	61	84	1	33	0	120	0.951107976026833	0	0	0
6	0	29	53	0	40	0	120	0.671721993945539	1	0	0
7	0	3	38	1	38	0	120	0.732151000062004	1	0	0
8	0	119	90	0	36	0	120	0.582435855874792	1	0	0
9	0	35	57	0	33	0	120	0.695692168083042	1	0	0
10	0	141	37	0	31	0	122	1.32764763594605	0	0	0
11	0	81	20	0	38	0	120	0.456098591908813	1	0	0
12	1	134	141	0	36	0	122	1.14240402099676	1	0	0
13	0	111	82	0	34	0	120	0.646703917998821	1	0	0
14	0	38	143	0	32	0	120	1.00482412707061	1	0	0
15	1	130	118	1	30	0	122	0.66529304604046	1	0	0
16	0	11	62	1	28	0	120	0.902097075944766	1	0	0
17	0	64	84	1	26	0	122	1.13711489015259	0	0	0
18	1	149	45	1	32	0	120	0.633674671174958	0	0	0
19	0	67	141	0	37	0	120	0.376002887962386	1	0	0
20	1	43	55	0	36	0	122	0.711599715985358	1	0	0
21	1	89	55	1	34	0	120	1.11469908198342	0	0	0
22	0	91	94	1	39	0	120	0.700186207890511	1	0	0
23	0	68	70	1	37	0	120	0.719861741177738	1	0	0
24	1	27	146	0	36	0	122	0.667088450165465	1	0	0
25	1	110	144	1	34	0	120	0.540782954078168	0	0	0
26	1	7	26	1	39	0	122	1.14350236696191	1	0	0
27	0	145	79	1	37	0	120	0.927321620984003	1	0	0
28	0	114	3	1	36	0	120	0.984991651959717	1	0	0
29	0	67	85	1	34	0	120	1.1677354502026	1	0	0
30	1	87	86	0	33	0	122	0.500755775952712	1	0	0
31	0	145	5	0	31	0	120	0.665332461940125	1	0	0
32	0	15	114	0	30	0	120	1.15015599201433	1	0	0
33	0	145	22	1	28	0	120	0.774378692032769	1	0	0
34	1	111	6	1	27	0	122	0.774908073013648	1	0	0
35	1	103	121	1	25	0	122	1.2204254178796	1	0	0
36	1	7	110	1	24	0	122	0.706377681810409	1	0	0
37	0	128	63	1	23	0	120	0.717659581918269	1	0	0
38	1	74	120	0	21	0	122	0.67993259918876	1	0	0
39	0	12	120	0	20	0	120	0.523746829014271	1	0	0
40	1	68	53	0	19	0	122	1.41278315708041	1	0	0
41	1	24	17	1	17	0	122	1.41748498310335	1	0	0
42	1	5	100	1	16	0	122	0.871042987098917	1	0	0
43	0	83	77	0	15	0	122	1.31550664198585	0	0	0
44	1	138	93	1	19	0	122	0.588450876064599	1	0	0
45	1	120	88	1	17	0	122	0.562153101200238	1	0	0
46	0	127	16	0	16	0	122	0.651984213851392	0	0	0
47	0	47	30	1	20	0	120	1.06435394496657	1	0	0
48	1	32	4	0	18	0	122	0.916592095047235	1	0	0
49	0	142	148	0	17	0	120	0.599396398989484	1	0	0
50	0	3	101	1	16	0	122	1.05235474603251	0	0	0
51	0	100	76	1	20	0	120	1.08852729294449	1	0	0
52	0	125	99	0	18	0	122	1.00510384980589	0	0	0
53	0	17	109	0	22	0	120	0.651394343003631	1	0	0
54	1	33	15	0	21	0	122	0.658035122090951	1	0	0
55	1	123	103	1	20	0	122	0.820330016082153	1	0	0
56	1	48	33	1	19	0	122	0.561275373911485	1	0	0
57	0	44	12	0	17	0	120	0.499997544102371	1	0	0
58	0	110	10	0	16	0	122	0.535577557981014	0	0	0
59	1	71	105	0	20	0	122	0.690580399008468	1	0	0
60	0	90	124	1	18	0	120	1.60288884793408	1	0	0
61	1	113	106	0	17	0	120	0.504238095832989	0	0	0
62	0	72	150	1	20	0	120	1.31590530392714	1	0	0
63	1	133	63	1	19	0	120	1.05349787790328	0	0	0
64	1	104	58	0	22	0	122	0.641505802981555	1	0	0
65	0	125	150	1	21	0	122	1.01339649409056	0	0	0
66	0	6	41	1	24	0	120	1.0828385760542	1	0	0
67	0	72	40	1	23	0	120	0.757895793998614	1	0	0
68	1	38	33	1	22	0	122	0.638088714098558	1	0	0
69	0	67	91	0	21	0	120	0.596055078785866	1	0	0
70	0	4	59	1	21	0	120	1.64104811800644	1	0	0
71	1	67	132	1	20	0	122	0.588739733910188	1	0	0
72	1	102	31	1	19	0	120	0.716832207050174	0	0	0
73	0	56	113	0	22	0	120	0.472668316913769	1	0	0
74	0	150	127	0	21	0	122	0.733368472894654	0	0	0
75	0	137	45	1	23	0	120	1.42072796402499	1	0	0
76	0	138	147	0	22	0	122	0.569004889111966	0	0	0
77	1	144	32	0	25	0	122	0.603112693876028	1	0	0
78	1	30	64	0	24	0	120	0.570479830028489	0	0	0
79	0	84	148	0	27	0	120	0.691659340169281	1	0	0
80	1	35	72	1	26	0	122	1.45878532202914	1	0	0
81	1	24	57	0	25	0	122	1.0456133140251	1	0	0
82	0	46	141	0	24	0	120	0.585735938046128	1	0	0
83	1	5	45	0	23	0	120	0.79438860504888	0	0	0
84	1	36	4	1	26	0	122	0.546230996958911	1	0	0
85	1	84	139	0	25	0	122	0.856803768081591	1	0	0
86	1	112	14	1	24	0	122	0.765486194984987	1	0	0
87	1	18	91	0	24	0	122	0.51090886304155	1	0	0
88	1	144	92	1	23	0	122	1.11379497405142	1	0	0
89	1	65	72	0	22	0	122	0.64326508785598	1	0	0
90	0	40	8	0	21	0	120	0.741199319949374	1	0	0
91	0	131	10	0	20	0	120	0.526862252037972	1	0	0
92	1	135	41	0	19	0	120	0.538050989853218	0	0	0
93	0	23	14	0	22	0	120	0.988076735986397	1	0	0
94	0	127	115	0	21	0	122	0.555496336892247	0	0	0
95	1	97	52	0	23	0	120	0.891082040034235	0	0	0
96	0	83	105	0	26	0	122	2.94292461802252	0	0	0
97	1	144	26	0	28	0	122	0.915767140919343	1	0	0
98	1	28	43	1	28	0	122	0.493708644062281	1	0	0
99	0	62	39	0	27	0	120	0.617727898992598	1	0	0
100	1	49	15	1	26	0	120	1.45310389599763	0	0	0
101	0	48	91	0	28	0	120	1.2594514049124	1	0	0
102	1	75	74	0	25	0	122	0.843567120144144	1	0	0
103	1	92	144	1	23	0	120	0.804635077947751	0	0	0
104	0	90	9	1	31	0	120	0.618406098103151	1	0	0
105	0	106	61	1	28	0	120	0.653975622029975	1	0	0
106	0	67	43	1	26	0	122	0.907576564932242	0	0	0
107	1	117	127	1	33	0	120	0.710398293798789	0	0	0
108	1	2	27	0	40	0	122	0.800896996166557	1	0	0
109	1	146	48	1	38	0	120	0.544911844888702	0	0	0
110	0	11	6	1	44	0	120	0.849169366061687	1	0	0
111	1	56	1	0	42	0	122	1.59803440188989	1	0	0
112	0	3	21	0	40	0	120	0.59485684405081	1	0	0
113	1	48	7	0	38	0	122	0.58769387495704	1	0	0
114	1	141	146	1	36	0	122	0.803355799987912	1	0	0
115	1	85	58	0	35	0	122	0.656177209923044	1	0	0
116	1	144	105	0	33	0	122	0.925381217850372	1	0	0
117	1	13	3	0	31	0	122	0.78391394787468	1	0	0
118	1	8	42	1	29	0	122	0.703795837936923	1	0	0
119	1	95	126	0	28	0	120	0.682912925025448	0	0	0
120	0	113	36	1	33	0	122	1.81303487415425	0	0	0
121	1	39	109	1	38	0	122	0.904477867064998	1	0	0
122	1	68	89	1	36	0	122	1.05969916493632	1	0	0
123	1	100	54	1	35	0	122	0.663139865966514	1	0	0
124	1	28	76	0	33	0	122	0.437711015809327	1	0	0
125	1	22	54	0	32	0	122	0.656348749063909	1	0	0
126	1	87	125	0	30	0	122	0.614139624871314	1	0	0
127	1	32	127	0	28	0	122	0.557031844044104	1	0	0
128	1	132	94	1	27	0	122	0.551402034936473	1	0	0
129	0	80	124	0	25	0	122	0.417441996978596	0	0	0
130	1	117	116	0	30	0	122	0.622500074794516	1	0	0
131	1	11	92	0	29	0	122	0.533915190957487	1	0	0
132	1	8	120	0	27	0	122	0.712177697801962	1	0	0
133	1	142	58	0	26	0	122	0.771471190964803	1	0	0
134	0	106	99	1	24	0	120	0.467947362922132	1	0	0
135	0	135	25	1	23	0	120	0.902691547991708	1	0	0
136	1	147	108	1	22	0	122	0.930507326964289	1	0	0
137	1	7	65	1	20	0	122	0.572072661016136	1	0	0
138	0	11	78	0	19	0	120	0.57340411003679	1	0	0
139	1	24	75	0	18	0	120	0.598219722975045	0	0	0
140	0	64	79	1	21	0	122	1.39449276402593	0	0	0
141	0	16	13	1	25	0	122	0.544296509120613	0	0	0
142	1	114	70	0	29	0	122	0.554973951075226	1	0	0
143	1	19	1	1	28	0	122	0.588316343957558	1	0	0
144	1	137	106	1	27	0	122	0.444090496050194	1	0	0
145	0	127	2	0	26	0	122	0.495793730020523	0	0	0
146	0	117	11	1	29	0	122	0.795547049958259	0	0	0
147	0	113	92	1	33	0	122	0.602382546989247	0	0	0
148	1	49	106	0	37	0	122	0.442025250988081	1	0	0
149	1	93	118	0	36	0	120	0.616341474931687	0	0	0
150	1	65	47	0	39	0	122	0.660651264013723	1	0	0
151	1	98	39	1	38	0	122	0.785139571875334	1	0	0
152	0	25	73	0	37	0	120	0.578076985897496	1	0	0
153	0	95	102	0	36	0	120	0.60294389212504	1	0	0
154	1	97	116	1	34	0	122	0.729259753832594	1	0	0
155	0	83	22	1	33	0	120	0.504725725157186	1	0	0
156	1	46	18	1	32	0	120	0.65995184192434	0	0	0
157	0	55	22	0	36	0	122	0.817143274936825	0	0	0
158	0	79	129	1	39	0	120	0.655244060093537	1	0	0
159	1	89	13	1	38	0	120	0.740885079139844	0	0	0
160	0	50	55	1	41	0	120	0.619135430082679	1	0	0
161	1	36	95	0	40	0	122	0.60224961489439	1	0	0
162	1	111	34	1	39	0	120	0.496715388027951	0	0	0
163	0	73	126	0	42	0	120	0.517103715101257	1	0	0
164	1	11	31	1	41	0	120	0.745569638907909	0	0	0
165	1	40	108	0	44	0	122	2.07999020791613	1	0	0
166	0	112	62	1	43	0	120	1.36136776115745	1	0	0
167	0	73	119	0	42	0	122	0.864684438798577	0	0	0
168	0	23	3	1	45	0	120	1.14109265804291	1	0	0
169	1	40	78	1	44	0	120	1.46901352214627	0	0	0
170	0	65	150	1	47	0	120	0.58074769587256	1	0	0
171	1	122	29	1	46	0	120	0.556860713055357	0	0	0
172	1	69	64	1	49	0	122	0.533917966997251	1	0	0
173	1	68	127	0	48	0	122	0.449447077931836	1	0	0
174	1	100	24	1	47	0	120	1.10360067500733	0	0	0
175	0	2	10	1	50	0	120	0.798382533015683	1	0	0
176	1	57	65	0	49	0	122	0.558118253014982	1	0	0
177	0	13	137	1	48	0	120	0.646941659972072	1	0	0
178	1	90	4	1	47	0	122	1.52519078413025	1	0	0
179	1	29	12	1	46	0	120	0.788377416087314	0	0	0
180	1	129	141	1	49	0	122	0.545594872906804	1	0	0
181	1	119	3	0	48	0	122	0.548964710906148	1	0	0
182	0	81	41	1	47	0	120	0.54331404902041	1	0	0
183	0	87	32	0	46	0	120	1.29738042317331	1	0	0
184	0	14	32	0	45	0	120	0.412143791094422	1	0	0
185	0	126	39	1	44	0	120	1.32004605908878	1	0	0
186	1	114	18	0	44	0	122	0.44965219986625	1	0	0
187	1	113	84	0	43	0	122	0.543379324954003	1	0	0
188	0	32	39	0	42	0	120	0.463702231878415	1	0	0
189	1	50	140	0	41	0	120	0.486308111110702	0	0	0
190	1	53	33	1	43	0	122	0.903206994989887	1	0	0
191	0	4	95	0	43	0	120	0.563764207996428	1	0	0
192	0	26	104	0	42	0	120	0.708370567066595	1	0	0
193	0	150	110	1	41	0	120	0.583108969032764	1	0	0
194	0	112	123	1	40	0	120	0.814543812768534	1	0	0
195	1	42	12	0	39	0	122	1.71467004809529	1	0	0
196	1	103	57	0	39	0	122	0.827622838085517	1	0	0
197	1	24	76	1	38	0	120	0.641266279155388	0	0	0
198	0	77	121	0	40	0	120	0.638750535901636	1	0	0
199	1	13	63	1	39	0	120	0.884436541004106	0	0	0
200	0	79	121	1	42	0	120	1.1574754009489	1	0	0
201	0	57	55	1	41	0	122	0.951376761076972	0	0	0
202	1	78	141	1	49	0	122	0.645894306013361	1	0	0
203	1	117	102	1	46	0	120	0.461317203007638	0	0	0
204	0	96	58	1	53	0	120	0.898297626059502	1	0	0
205	0	123	121	1	51	0	122	1.39508686913177	0	0	0
206	1	114	30	1	58	0	122	0.640392421977594	1	0	0
207	0	76	95	1	56	0	120	0.822919249068946	1	0	0
208	1	150	146	0	54	0	122	0.612724743084982	1	0	0
209	0	138	115	1	52	0	122	0.675927065080032	0	0	0
210	0	130	19	1	58	0	122	0.837378171971068	0	0	0
211	0	142	98	1	64	0	120	0.87580634187907	1	0	0
212	0	149	108	1	62	0	120	0.559242692077532	1	0	0
213	0	134	47	1	60	0	120	0.504722419893369	1	0	0
214	0	63	24	1	58	0	122	0.420726187061518	0	0	0
215	0	21	63	0	64	0	120	0.528865172062069	1	0	0
216	0	150	136	1	62	0	120	0.804662248119712	1	0	0
217	0	128	58	0	60	0	122	0.779153063194826	0	0	0
218	1	62	122	0	65	0	122	0.971305214101449	1	0	0
219	1	54	126	0	64	0	122	0.628514177864417	1	0	0
220	1	32	44	0	62	0	122	1.04843990621157	1	0	0
221	1	112	145	1	60	0	122	0.773391772061586	1	0	0
222	0	82	48	0	59	0	120	0.925818850053474	1	0	0
223	0	110	2	0	57	0	122	0.662990100914612	0	0	0
224	1	23	141	1	62	0	122	0.62049445300363	1	0	0
225	0	30	104	0	61	0	120	1.2092079250142	1	0	0
226	0	40	88	1	59	0	120	0.847018118016422	1	0	0
227	1	135	144	1	58	0	122	0.643431669101119	1	0	0
228	1	140	54	1	56	0	122	0.70584468706511	1	0	0
229	0	28	120	1	55	0	120	0.741342074936256	1	0	0
230	1	85	18	0	53	0	122	0.524355039000511	1	0	0
231	1	86	56	1	52	0	120	0.863143227063119	0	0	0
232	1	46	88	0	56	0	120	0.659343577222899	0	0	0
233	1	118	92	1	60	0	120	0.417277518194169	0	0	0
234	0	94	85	0	64	0	120	0.520579400006682	1	0	0
235	1	109	3	0	63	0	122	0.977176561951637	1	0	0
236	0	29	86	0	62	0	120	0.512572971871123	1	0	0
237	1	22	123	0	60	0	122	0.564253577031195	1	0	0
238	1	56	103	1	59	0	122	0.684701015008613	1	0	0
239	0	44	82	0	58	0	122	1.03248911304399	0	0	0
240	1	80	105	0	62	0	122	1.23485993104987	1	0	0
241	0	82	57	1	60	0	120	0.734983709873632	1	0	0
242	1	62	127	0	59	0	122	0.65692477603443	1	0	0
243	1	147	124	0	58	0	120	0.766956340055913	0	0	0
244	0	58	72	0	62	0	120	0.66249488783069	1	0	0
245	1	67	144	1	60	0	122	0.737311370903626	1	0	0
246	0	75	7	0	59	0	120	1.01949307019822	1	0	0
247	1	75	147	1	58	0	120	0.565766067011282	0	0	0
248	1	114	12	1	62	0	122	0.81690449686721	1	0	0
249	0	65	68	0	60	0	122	0.824536296073347	0	0	0
250	1	112	141	1	64	0	122	0.570905297994614	1	0	0
251	1	36	27	0	63	0	122	1.19628375791945	1	0	0
252	1	125	15	0	62	0	122	0.594343082047999	1	0	0
253	0	74	133	0	60	0	122	0.690401097061113	0	0	0
254	0	125	14	0	64	0	120	1.35034909192473	1	0	0
255	1	5	22	0	62	0	122	0.603810122935101	1	0	0
256	1	37	123	1	61	0	122	0.570942237041891	1	0	0
257	0	144	95	0	60	0	120	0.675487241940573	1	0	0
258	0	115	128	0	59	0	122	0.751422795001417	0	0	0
259	0	7	1	0	62	0	120	0.85704978602007	1	0	0
260	0	143	41	1	61	0	120	1.13119729189202	1	0	0
261	0	80	82	1	60	0	120	1.07658089394681	1	0	0
262	0	59	140	0	59	0	120	0.560000733938068	1	0	0
263	0	78	54	1	58	0	120	0.536709313979372	1	0	0
264	0	66	41	1	57	0	120	0.843664163956419	1	0	0
265	1	146	130	0	57	0	120	0.814882091013715	0	0	0
266	1	75	28	0	59	0	120	0.589627458946779	0	0	0
267	0	67	33	1	62	0	122	1.06126590585336	0	0	0
268	1	54	60	1	65	0	122	0.922734149964526	1	0	0
269	1	52	29	0	64	0	122	1.29971303092316	1	0	0
270	0	50	66	1	63	0	120	0.625816493062302	1	0	0
271	1	100	91	0	62	0	120	1.00137320905924	0	0	0
272	0	56	41	0	65	0	122	0.800507135223597	0	0	0
273	0	34	85	1	68	0	120	0.512278791051358	1	0	0
274	1	17	26	1	67	0	122	0.945723479148	1	0	0
275	0	61	32	0	66	0	120	0.751010027946904	1	0	0
276	1	133	9	1	65	0	120	0.441302896942943	0	0	0
277	1	145	96	1	68	0	122	0.735659422120079	1	0	0
278	0	17	2	1	67	0	122	0.504376183031127	0	0	0
279	1	125	18	0	69	0	122	0.66875765286386	1	0	0
280	0	10	88	0	69	0	120	1.25306465197355	1	0	0
281	1	128	27	1	68	0	122	0.537967876996845	1	0	0
282	0	63	13	1	67	0	122	0.604841266060248	0	0	0
283	1	62	96	1	69	0	122	0.915530455065891	1	0	0
284	1	69	84	1	68	0	122	0.911105531034991	1	0	0
285	1	51	87	1	68	0	122	0.719537805067375	1	0	0
286	0	9	38	0	67	0	120	1.04709626780823	1	0	0
287	0	96	121	0	66	0	120	3.1162894340232	1	0	0
288	0	27	74	1	65	0	120	0.817386568989605	1	0	0
289	1	63	116	0	64	0	122	0.703923952998593	1	0	0
290	1	32	120	0	64	0	122	0.768505945801735	1	0	0
291	0	45	124	0	63	0	120	0.73747945507057	1	0	0
292	1	37	23	1	62	0	122	0.659383264137432	1	0	0
293	1	108	105	1	61	0	122	0.695670434972271	1	0	0
294	0	144	113	1	61	0	120	0.795093524968252	1	0	0
295	0	109	80	1	60	0	120	1.04808579501696	1	0	0
296	0	93	71	1	59	0	122	1.09208386205137	0	0	0
297	0	100	79	1	61	0	122	0.654404960107058	0	0	0
298	1	42	40	0	63	0	122	2.20343427918851	1	0	0
299	1	62	40	1	63	0	122	0.647711995989084	1	0	0
300	0	91	94	1	62	0	120	1.52051991713233	1	0	0
301	1	130	83	1	61	0	122	1.5681333001703	1	0	0
302	1	125	143	0	58	0	122	1.22768454696052	1	0	0
303	0	122	22	1	56	0	120	0.523383718915284	1	0	0
304	1	34	79	1	53	0	120	0.535516225965694	0	0	0
305	1	106	3	1	61	0	122	1.27060489193536	1	0	0
306	1	63	146	1	59	0	122	0.697964339051396	1	0	0
307	1	48	42	0	57	0	122	0.677370422054082	1	0	0
308	0	83	20	0	54	0	122	0.714798694010824	0	0	0
309	1	64	37	1	61	0	122	0.452178143197671	1	0	0
310	0	150	107	1	59	0	120	1.07092757290229	1	0	0
311	0	81	146	1	57	0	122	0.908253323985264	0	0	0
312	0	113	99	0	63	0	122	0.814448477933183	0	0	0
313	1	150	150	1	69	0	122	0.581248866161332	1	0	0
314	1	14	25	1	67	0	122	0.644894302822649	1	0	0
315	0	101	6	0	66	0	120	1.73612095811404	1	0	0
316	1	2	34	1	64	0	122	0.536469721002504	1	0	0
317	0	47	150	1	62	0	120	0.898522602859885	1	0	0
318	1	81	41	1	60	0	122	0.693562499014661	1	0	0
319	0	148	41	0	58	0	122	0.569737084209919	0	0	0
320	0	143	124	0	64	0	122	1.03947330382653	0	0	0
321	1	129	5	1	69	0	122	0.485505082178861	1	0	0
322	1	119	150	0	67	0	122	0.617335167946294	1	0	0
323	1	67	37	0	66	0	122	0.728710863972083	1	0	0
324	1	18	109	0	64	0	122	0.563937029102817	1	0	0
325	0	78	81	1	62	0	120	1.61714291502722	1	0	0
326	0	19	137	1	61	0	120	0.766039551002905	1	0	0
327	0	108	41	0	59	0	122	0.822467603953555	0	0	0
328	1	60	141	1	64	0	122	1.24635733989999	1	0	0
329	0	83	86	0	62	0	120	1.36229608487338	1	0	0
330	1	31	24	1	61	0	122	0.886910214088857	1	0	0
331	0	86	59	0	59	0	120	0.882170504890382	1	0	0
332	1	123	82	1	58	0	122	0.581950339023024	1	0	0
333	1	44	75	0	56	0	120	0.782989091007039	0	0	0
334	1	53	47	0	61	0	122	0.934927483089268	1	0	0
335	0	79	124	1	59	0	120	1.0609924888704	1	0	0
336	1	146	145	0	58	0	120	0.601825764868408	0	0	0
337	0	141	7	1	62	0	120	0.786603981861845	1	0	0
338	1	50	145	1	61	0	122	0.817837357055396	1	0	0
339	0	117	94	0	59	0	122	0.63089566398412	0	0	0
340	0	97	108	0	63	0	120	0.970102823106572	1	0	0
341	1	149	120	0	62	0	120	0.569355310173705	0	0	0
342	0	150	13	1	66	0	120	0.650873970007524	1	0	0
343	1	95	27	1	65	0	122	0.503565836930647	1	0	0
344	1	40	34	0	63	0	122	0.523800106951967	1	0	0
345	1	132	5	0	62	0	122	2.29947645892389	1	0	0
346	1	63	4	1	61	0	120	0.827828744892031	0	0	0
347	0	19	32	1	65	0	120	0.530095256865025	1	0	0
348	0	111	87	1	63	0	122	1.03719049505889	0	0	0
349	1	24	7	0	67	0	122	0.76985511300154	1	0	0
350	0	14	150	0	66	0	122	0.671281302114949	0	0	0
351	0	101	131	1	69	0	120	0.556291320128366	1	0	0
352	1	1	63	0	68	0	120	0.726271288003772	0	0	0
353	1	96	35	1	72	0	122	0.511695801978931	1	0	0
354	0	6	138	0	71	0	122	0.666805282933637	0	0	0
355	1	65	149	1	74	0	122	1.35603081900626	1	0	0
356	0	101	36	1	73	0	120	0.708622782956809	1	0	0
357	0	75	86	1	72	0	120	0.598547857953236	1	0	0
358	0	149	103	1	71	0	120	1.23053541709669	1	0	0
359	1	45	45	1	70	0	120	0.707604941911995	0	0	0
360	0	147	28	1	73	0	120	0.755495588993654	1	0	0
361	1	145	130	0	72	0	122	0.588463275926188	1	0	0
362	1	49	104	0	71	0	122	0.620111755095422	1	0	0
363	0	82	25	0	70	0	120	1.15479817590676	1	0	0
364	1	29	50	1	68	0	122	0.79581012390554	1	0	0
365	1	18	67	1	67	0	122	1.27109120204113	1	0	0
366	0	37	10	0	66	0	120	0.826629565097392	1	0	0
367	1	118	96	1	65	0	122	0.801086054882035	1	0	0
368	1	126	47	0	64	0	122	0.960034382995218	1	0	0
369	1	133	133	0	63	0	122	0.5536949201487	1	0	0
370	0	135	75	1	62	0	122	0.615993267158046	0	0	0
371	0	76	33	1	65	0	120	1.19093136582524	1	0	0
372	1	123	31	0	64	0	120	0.861969345016405	0	0	0
373	0	99	78	0	67	0	120	0.554597591049969	1	0	0
374	1	37	58	1	66	0	122	0.531938709784299	1	0	0
375	1	83	128	1	65	0	122	0.659572025062516	1	0	0
376	1	13	26	0	64	0	122	0.705539567163214	1	0	0
377	0	7	137	1	64	0	120	0.700439753010869	1	0	0
378	1	69	32	1	63	0	122	0.735247515141964	1	0	0
379	0	78	54	0	62	0	120	0.666066421894357	1	0	0
380	0	31	56	1	61	0	122	1.21966070192866	0	0	0
381	1	124	7	1	64	0	122	1.0166679751128	1	0	0
382	0	107	130	0	63	0	122	0.702604432823136	0	0	0
383	1	58	143	0	65	0	122	0.834157431032509	1	0	0
384	0	128	74	0	64	0	120	0.648401275044307	1	0	0
385	0	141	131	1	63	0	120	1.04358998103999	1	0	0
386	1	127	15	1	63	0	122	1.35195586807095	1	0	0
387	0	72	66	0	62	0	120	0.663768109865487	1	0	0
388	0	30	112	0	61	0	120	1.0134967721533	1	0	0
389	0	94	55	0	60	0	120	0.475014983909205	1	0	0
390	1	40	3	0	59	0	122	0.676941697020084	1	0	0
391	1	74	17	0	59	0	122	0.873878790065646	1	0	0
392	0	4	95	1	58	0	120	0.589626159984618	1	0	0
393	1	61	132	1	57	0	122	1.48555943998508	1	0	0
394	0	22	18	1	56	0	120	1.81591234891675	1	0	0
395	0	132	53	1	56	0	122	1.26514913514256	0	0	0
396	0	135	81	0	58	0	122	0.651991223916411	0	0	0
397	1	134	92	1	60	0	122	0.449715204071254	1	0	0
398	1	2	81	0	59	0	122	0.495876626111567	1	0	0
399	1	58	69	1	58	0	122	0.756105626001954	1	0	0
400	1	93	16	0	58	0	122	0.659101545810699	1	0	0
401	1	61	20	1	57	0	120	1.73150480980985	0	0	0
402	1	124	140	1	65	0	120	0.560059768846259	0	0	0
403	1	93	35	0	72	0	120	0.844759926199913	0	0	0
404	0	18	97	0	78	0	120	0.561112490016967	1	0	0
405	0	80	36	0	76	0	120	10.0315110008232	1	0	0
406	0	45	109	0	74	0	120	0.529900297056884	1	0	0
407	1	134	110	0	72	0	122	0.516516322968528	1	0	0
408	1	54	22	1	70	0	122	0.5354456580244	1	0	0
409	0	27	110	1	69	0	120	0.601227452047169	1	0	0
410	1	129	77	0	67	0	122	0.694965400965884	1	0	0
411	0	54	38	0	65	0	122	1.15963352401741	0	0	0
412	1	91	128	0	70	0	122	0.512916342820972	1	0	0
413	0	34	2	1	69	0	122	0.612750843167305	0	0	0
414	1	21	124	0	74	0	122	0.57260481105186	1	0	0
415	1	57	17	0	72	0	122	1.24270734912716	1	0	0
416	1	66	111	0	71	0	122	0.743608192075044	1	0	0
417	0	127	123	1	69	0	120	0.937616932904348	1	0	0
418	1	30	45	0	67	0	122	0.723586303880438	1	0	0
419	0	43	54	1	65	0	122	0.732939244015142	0	0	0
420	1	66	100	0	70	0	122	1.32330632093363	1	0	0
421	0	4	2	0	69	0	120	1.5495194660034	1	0	0
422	0	118	21	0	67	0	122	0.56473218719475	0	0	0
423	1	77	21	0	72	0	122	0.614284015959129	1	0	0
424	0	127	76	1	70	0	120	0.781322404043749	1	0	0
425	0	10	123	1	69	0	120	1.57788146706298	1	0	0
426	1	77	116	1	67	0	122	0.792787492042407	1	0	0
427	1	98	9	1	66	0	122	0.424735424108803	1	0	0
428	0	11	56	1	65	0	120	0.727453922852874	1	0	0
429	1	8	12	0	63	0	122	0.513409588951617	1	0	0
430	1	42	44	0	62	0	120	1.66515460889786	0	0	0
431	0	22	83	0	66	0	122	0.99656646209769	0	0	0
432	0	141	75	0	70	0	120	0.938881149981171	1	0	0
433	0	120	25	0	69	0	120	0.709277403075248	1	0	0
434	0	70	126	0	68	0	122	1.08819645596668	0	0	0
435	1	103	116	0	72	0	120	1.46544889896177	0	0	0
436	1	84	113	1	76	0	122	0.87576343701221	1	0	0
437	1	46	94	0	75	0	122	1.24012218997814	1	0	0
438	0	67	40	1	73	0	122	0.613193603930995	0	0	0
439	0	81	73	0	77	0	120	0.508695914875716	1	0	0
440	1	81	56	0	76	0	120	1.3807996220421	0	0	0
441	0	81	84	0	80	0	122	0.907443061005324	0	0	0
442	0	81	22	1	83	0	120	1.07808078895323	1	0	0
443	0	87	9	1	82	0	122	0.75387934804894	0	0	0
444	0	134	92	0	86	0	122	1.7702416148968	0	0	0
445	0	54	128	1	89	0	122	0.941751784877852	0	0	0
446	1	5	59	1	93	0	122	1.00782104488462	1	0	0
447	0	35	67	0	92	0	120	0.630424998002127	1	0	0
448	1	136	131	0	91	0	122	0.620988063048571	1	0	0
449	1	47	119	0	90	0	122	1.01272732811049	1	0	0
450	1	100	70	1	89	0	122	1.15162964607589	1	0	0
451	1	134	146	1	87	0	122	0.806163778994232	1	0	0
452	0	109	80	1	86	0	120	0.590416127117351	1	0	0
453	0	85	84	0	85	0	120	0.717584982980043	1	0	0
454	0	58	24	0	84	0	120	1.17713522585109	1	0	0
455	0	110	140	0	83	0	122	0.80686020385474	0	0	0
456	1	100	67	1	86	0	122	0.493373923003674	1	0	0
457	0	19	139	1	85	0	122	1.12902555591427	0	0	0
458	1	125	138	0	88	0	122	0.929714170983061	1	0	0
459	0	94	149	1	87	0	120	0.915408428059891	1	0	0
460	1	11	122	0	86	0	122	0.602601537015289	1	0	0
461	1	17	33	1	85	0	122	1.56216852995567	1	0	0
462	1	150	64	0	84	0	122	0.585453456034884	1	0	0
463	0	29	137	0	83	0	120	0.745745668886229	1	0	0
464	1	148	118	0	82	0	122	0.601949052885175	1	0	0
465	1	55	54	0	81	0	122	0.799617013894022	1	0	0
466	0	40	149	0	80	0	120	1.11098879296333	1	0	0
467	0	118	30	0	79	0	120	0.695789837045595	1	0	0
468	1	85	114	1	78	0	122	0.41221232409589	1	0	0
469	0	68	38	1	77	0	122	0.595513018080965	0	0	0
470	0	17	76	1	80	0	122	1.7283213539049	0	0	0
471	1	117	24	1	83	0	122	0.471071186009794	1	0	0
472	0	93	88	1	82	0	120	0.493120454950258	1	0	0
473	1	14	117	0	81	0	120	0.672320838086307	0	0	0
474	0	119	8	0	84	0	122	1.24692485202104	0	0	0
475	0	67	129	1	87	0	120	1.22523497394286	1	0	0
476	0	23	136	0	86	0	120	0.607284510973841	1	0	0
477	0	104	30	0	85	0	120	0.549369683023542	1	0	0
478	0	53	32	0	84	0	122	0.791588580003008	0	0	0
479	1	97	146	1	87	0	122	0.646662424085662	1	0	0
480	0	96	84	1	86	0	120	0.689363413024694	1	0	0
481	0	111	30	0	85	0	120	0.828508210135624	1	0	0
482	0	58	145	0	84	0	120	1.25829718820751	1	0	0
483	0	58	140	1	83	0	122	0.622459030942991	0	0	0
484	1	61	65	1	86	0	122	0.956700237933546	1	0	0
485	0	30	72	0	85	0	120	1.00610113702714	1	0	0
486	0	22	55	1	84	0	120	0.78506728890352	1	0	0
487	1	63	30	0	83	0	122	0.655876977834851	1	0	0
488	1	19	148	0	83	0	122	0.455240970011801	1	0	0
489	1	150	128	1	82	0	122	0.380869438871741	1	0	0
490	0	20	40	0	81	0	120	0.467266824096441	1	0	0
491	0	72	136	0	80	0	120	0.632173153106123	1	0	0
492	0	59	104	1	79	0	120	0.766948021017015	1	0	0
493	1	115	53	0	79	0	122	0.559217032045126	1	0	0
494	0	148	130	0	78	0	120	0.88055451400578	1	0	0
495	1	126	1	0	77	0	122	2.67530267685652	1	0	0
496	0	34	89	0	76	0	122	0.499270684085786	0	0	0
497	1	25	98	0	79	0	122	1.31088100583293	1	0	0
498	0	36	8	1	78	0	120	1.1844160889741	1	0	0
499	0	97	65	1	77	0	120	0.663360469974577	1	0	0
500	1	2	93	1	76	0	122	0.809417605167255	1	0	0
