Trial	Gender_Face1	Face1_nb	Face2_nb	Right_left_flip	Nb_Bubbles	Overlap_Target	Response	RT	Accuracy	Simi2Target	Trial_Reward
1	0	88	53	0	28	0	122	6.15319186798297	1	0.0359631017323486	12.6637412620617
2	1	70	110	0	25	0	120	3.6430219290196	1	0.104855806690564	13.5711373780283
3	1	114	59	0	23	0	122	2.75280675705289	0	0.0146327961508751	-0
4	1	30	104	1	31	0	120	1.36894960701466	1	0.0551525484177431	11.9928937619321
5	1	69	106	1	28	0	120	1.57682196196401	1	0.0253595282206933	12.6637412620617
6	1	30	90	0	26	0	122	2.02207893901505	0	0.0148052122203568	-0
7	0	134	110	1	33	0	122	5.31426979100797	1	0.0606418956936923	11.6438897945462
8	1	94	10	1	31	0	122	3.89955992298201	0	0.0424459988232207	-23.9857875238642
9	0	52	70	0	38	0	120	3.4049634449766	0	0.0504295833268664	-22.0375174668248
10	0	38	4	1	44	0	120	1.07311858300818	0	0.0626298904471277	-21.1637638313771
11	0	20	102	1	50	0	122	6.52380632399581	1	0.0665410849545652	10.3478437490739
12	0	122	138	0	48	0	120	4.48386236303486	0	0.0369067774031011	-20.8193540066379
13	0	120	36	1	53	0	120	5.3486881859717	0	0.0642689833157087	-20.5554446340898
14	0	118	39	0	58	0	120	1.62048625998432	0	0.0648574904595538	-20.4084952530382
15	0	36	64	0	63	0	122	1.05630362598458	1	0.0412643697394698	10.1651321309659
16	0	53	128	1	62	0	122	2.71474759001285	1	0.0710660971983402	10.1710338869944
17	0	80	123	0	60	0	122	2.26713923900388	1	0.103705684550132	10.1854890507786
18	0	82	132	1	59	0	122	1.43326654599514	1	0.0301611076681793	10.1942669347537
19	0	56	91	1	57	0	120	2.06548074196326	0	0.0703935902077716	-20.4311484851376
20	0	109	46	0	62	0	122	1.58042830496561	1	0.0570359684302241	10.1710338869944
21	1	86	119	0	60	0	120	1.46712161699543	1	0.0695453901366764	10.1854890507786
22	1	107	59	0	59	0	120	2.54029059800087	1	0.0805772622901996	10.1942669347537
23	0	15	75	1	57	0	122	0.8048110390082	1	0.0795435832108456	10.2155742425688
24	0	11	133	0	56	0	122	2.24115640798118	1	0.0927270597627034	10.2284040715341
25	1	92	136	0	54	0	120	1.90776721196016	1	0.0691962241015789	10.2592801621694
26	1	110	95	1	53	0	120	1.80478730797768	1	0.113858784384152	10.2777223170449
27	0	145	115	0	52	0	122	0.737812035018578	1	0.078344608556145	10.2984621447649
28	1	117	21	1	50	0	120	3.19270264200168	1	0.0325441868489828	10.3478437490739
29	1	51	95	0	49	0	120	4.26209220604505	1	0.100691804823884	10.3770475798729
30	0	149	121	0	47	0	122	0.696735904959496	1	0.0740238575867732	10.4460795824527
31	0	32	6	1	46	0	122	3.84303231496597	1	0.0149794800254888	0
32	0	31	150	1	45	0	122	1.2869666700135	1	0.0610660289330066	10.5317515270736
33	0	67	37	1	43	0	122	1.01670253602788	1	0.0261220455271283	10.6375143482975
34	1	8	87	0	42	0	122	2.44534027698683	0	0.0493382916071996	-21.3983659356866
35	1	61	62	1	46	0	120	0.91263243398862	1	0.0915348507155108	10.4866337303374
36	0	113	56	0	45	0	120	2.36125461495249	0	0.0637730561165216	-21.0635030541472
37	1	41	134	0	48	0	120	1.19245586299803	1	0.0668713534782358	10.409677003319
38	1	86	80	0	47	0	120	1.22954565798864	1	0.0692622503910356	10.4460795824527
39	1	129	7	1	46	0	120	1.12815157399746	1	0.0833095894307231	10.4866337303374
40	1	4	4	1	45	0	120	2.22429004899459	1	0.0469177501526013	10.5317515270736
41	0	106	83	1	44	0	120	3.48855681100395	0	0.0910812568262711	-21.1637638313771
42	0	99	24	0	47	0	122	1.03767507901648	1	0.0371779170646107	10.4460795824527
43	0	119	63	1	46	0	122	2.84301247901749	1	0.0479232298170159	10.4866337303374
44	1	94	27	0	45	0	120	1.02215609501582	1	0.048132328352343	10.5317515270736
45	1	108	21	1	44	0	120	1.00073459598934	1	0.0920797574136602	10.5818819156885
46	0	123	110	1	43	0	122	4.03800770704402	1	0.0680938800838381	10.6375143482975
47	1	147	122	0	41	0	122	3.49798545200611	0	0.0474624872393068	-21.5349428550014
48	0	11	97	0	45	0	122	0.795951706997585	1	0.0775282161998308	10.5317515270736
49	1	78	53	0	44	0	120	1.15160141402157	1	0.0101492150322809	0
50	0	142	39	1	43	0	122	2.22394010296557	1	0.0697037559333257	10.6375143482975
51	1	143	49	0	41	0	120	1.66737050598022	1	0.0283185520386608	10.7674714275007
52	1	71	30	0	40	0	122	2.34236361604417	0	0.0369889969525564	-21.6860369404312
53	1	110	25	1	44	0	120	1.84474874899024	1	0.058215805152538	10.5818819156885
54	0	95	130	0	42	0	122	0.688598342996556	1	0.0574826387719388	10.6991829678433
55	0	14	30	0	41	0	122	1.45821751194308	1	0.0362708287392109	10.7674714275007
56	0	68	27	1	40	0	122	2.42884527298156	1	0.079372920086121	10.8430184702156
57	1	2	115	1	39	0	120	1.01664965995587	1	0.0626828800839035	10.9265244157653
58	1	147	123	0	38	0	120	5.07000724796671	1	0.032145828745428	11.0187587334124
59	1	57	99	1	37	0	122	1.98343564401148	0	0.112741852918829	-22.2411378325436
60	1	138	39	0	40	0	120	0.798815958027262	1	0.064776183494447	10.8430184702156
61	0	147	88	1	40	0	122	4.2584073820035	1	0.108133256359346	10.8430184702156
62	0	64	147	1	39	0	120	1.35076963005122	0	0.0209935884469157	-0
63	1	31	101	0	41	0	120	1.17343264300143	1	0.126602831565667	10.7674714275007
64	1	7	75	1	41	0	120	1.05154559499351	1	0.0764937337037473	10.7674714275007
65	0	136	59	1	40	0	122	0.919011637975927	1	0.0862650186529308	10.8430184702156
66	0	109	139	0	39	0	122	1.5825226349989	1	0.0537440224970508	10.9265244157653
67	0	14	17	0	38	0	122	12.7242050789646	1	0.0409312350931459	11.0187587334124
68	1	100	135	1	37	0	120	2.59781495295465	1	0.0464654243478673	11.1205689162718
69	0	74	63	0	36	0	120	4.80211628600955	0	0.0318794158307916	-22.4657818420483
70	1	100	49	0	39	0	120	1.03900040901499	1	0.0307575190748633	10.9265244157653
71	1	78	145	1	38	0	120	0.714085310988594	1	0.055318523648198	11.0187587334124
72	0	138	37	0	37	0	122	0.763132694992237	1	0.076706240745997	11.1205689162718
73	0	77	100	0	36	0	122	5.68234824598767	1	0.0517508346286653	11.2328909210242
74	0	136	11	0	35	0	122	0.723956222995184	1	0.0623051771108723	11.3567614963619
75	1	17	28	0	34	0	120	0.836196134972852	1	0.033345863028825	11.4933327992393
76	1	55	2	1	33	0	120	1.83111838798504	1	0.0526674368948224	11.6438897945462
77	1	47	17	0	33	0	120	2.11591043800581	1	0.0852141410092911	11.6438897945462
78	1	4	45	1	32	0	122	0.908503125014249	0	0.0355104825352812	-23.6197421158065
79	1	147	140	1	34	0	120	1.60486397799104	1	0.0225400669100277	0
80	0	140	73	0	33	0	120	1.57013616600307	0	0.0164907893059862	-0
81	0	69	142	0	36	0	122	0.64043293899158	1	0.0637360978418749	11.2328909210242
82	0	82	41	1	35	0	122	0.789047893951647	1	0.00419033405964758	0
83	1	40	49	1	34	0	120	0.809545281983446	1	0.0401950645860748	11.4933327992393
84	0	112	88	1	33	0	122	1.38164619903546	1	0.0192275152105724	0
85	0	43	16	1	33	0	122	0.709486069972627	1	0.100722444523075	11.6438897945462
86	1	28	32	0	32	0	120	0.710651714005508	1	0.000105675061870023	0
87	1	41	107	0	31	0	122	1.78233123000246	0	0.0360549471537746	-23.9857875238642
88	1	149	28	1	34	0	122	1.40376383397961	0	0.0877378394574952	-22.9866655984786
89	1	6	19	1	36	0	120	2.01011036999989	1	0.0425412366508682	11.2328909210242
90	1	129	61	0	35	0	120	1.43027213797905	1	0.0139473406120057	0
91	1	78	57	1	34	0	120	1.65907288400922	1	0.0801161986502724	11.4933327992393
92	0	1	121	0	34	0	122	1.04559949296527	1	0.0746141740912483	11.4933327992393
93	0	103	24	0	33	0	120	0.753559063014109	0	0.0351182807655848	-23.2877795890924
94	1	75	29	1	35	0	120	1.04113216797123	1	0.0176228305312237	0
95	1	112	116	0	34	0	122	1.66834509797627	0	0.0677240906159065	-22.9866655984786
96	0	48	51	0	36	0	120	2.91829877597047	0	0.0820088572146806	-22.4657818420483
97	1	119	83	1	39	0	120	1.57473645900609	1	0.0353966809043136	10.9265244157653
98	0	73	58	1	38	0	120	2.11796176398639	0	0.0964883472506783	-22.0375174668248
99	1	96	84	1	40	0	120	0.830316311039496	1	0.0918687947841405	10.8430184702156
100	0	89	28	1	39	0	122	0.706262242980301	1	0.000531403438722302	0
101	0	85	74	0	39	0	122	0.859220548998564	1	0.0694432282232165	10.9265244157653
102	0	13	55	0	36	0	122	0.891237688018009	1	0.0662496392510785	11.2328909210242
103	0	115	107	0	34	0	122	1.26481714803958	1	0.0934651049397007	11.4933327992393
104	0	117	130	1	31	0	120	0.890098301984835	0	0.0431798503469741	-23.9857875238642
105	0	28	88	0	39	0	122	0.899858091026545	1	0.0598345985269766	10.9265244157653
106	0	33	66	0	37	0	122	1.5336552830413	1	0.0272611581125707	11.1205689162718
107	0	115	134	1	35	0	122	1.03745643602451	1	0.0268599041741491	11.3567614963619
108	0	88	105	1	32	0	120	1.31432059395593	0	0.102345490265711	-23.6197421158065
109	0	88	18	1	39	0	120	2.94720975594828	0	0.116059970622808	-21.8530488315306
110	0	59	29	0	46	0	122	2.38574309000978	1	0.0890416155303279	10.4866337303374
111	0	43	121	1	44	0	120	0.896062105020974	0	0.0913125959401613	-21.1637638313771
112	1	36	124	1	50	0	120	0.896710222994443	1	0.0680334216891989	10.3478437490739
113	1	57	142	1	48	0	120	1.22734116495121	1	0.0917831236227967	10.409677003319
114	1	134	87	0	46	0	120	1.80618811998283	1	0.0904890559094604	10.4866337303374
115	1	142	54	0	44	0	120	1.10635943902889	1	0.0351777969924366	10.5818819156885
116	1	122	127	1	43	0	120	1.95480500598205	1	0.037342278142174	10.6375143482975
117	0	76	116	1	41	0	122	1.43515176000074	1	0.101423492724276	10.7674714275007
118	0	15	97	1	39	0	122	0.806310029001907	1	0.0254198858230585	10.9265244157653
119	0	129	91	1	37	0	120	1.80267380201258	0	0.0526648942659687	-22.2411378325436
120	0	107	46	0	43	0	122	1.84181114501553	1	0.00826284794857393	0
121	0	54	12	0	41	0	120	3.65292715100804	0	0.0227343025065198	-0
122	0	22	18	1	46	0	120	1.47975970699918	0	0.0846716890699993	-20.9732674606748
123	1	143	131	1	51	0	120	1.25117524497909	1	0.034972073085341	10.3217462999684
124	1	96	68	0	49	0	120	0.733269143966027	1	0.0507886707505145	10.3770475798729
125	0	79	54	1	48	0	122	0.996384910016786	1	0.0636873319786944	10.409677003319
126	0	13	122	1	46	0	122	0.706899104989134	1	0.0665486585232163	10.4866337303374
127	1	117	120	1	45	0	120	0.784621054015588	1	0.0170106924387922	0
128	0	12	57	1	43	0	122	0.735525336000137	1	0.018952177948589	0
129	0	49	49	1	41	0	120	0.750416363996919	0	0.0272422374143429	-21.5349428550014
130	1	100	21	0	46	0	120	0.83094118401641	1	0.088548330316764	10.4866337303374
131	0	12	1	1	44	0	122	0.763067001011223	1	0.0510457842749268	10.5818819156885
132	1	104	142	0	43	0	120	1.00110061402665	1	0.0775837347344384	10.6375143482975
133	0	74	87	0	42	0	122	1.24704633100191	1	0.0621595216219281	10.6991829678433
134	0	29	150	1	40	0	120	1.153657163959	0	0.0580962771639288	-21.6860369404312
135	1	13	15	1	44	0	120	1.04872391402023	1	0.0608605204813265	10.5818819156885
136	1	14	25	0	43	0	122	1.05167705804342	0	0.0795252869447508	-21.275028696595
137	1	85	15	1	47	0	120	0.767416643036995	1	0.0403987660138842	10.4460795824527
138	0	94	61	0	46	0	122	0.781666057999246	1	0.0794695672236391	10.4866337303374
139	0	62	150	1	44	0	122	0.908532785018906	1	0.0633806297018156	10.5818819156885
140	1	145	114	1	43	0	120	0.709350653982256	1	0.0396391951920855	10.6375143482975
141	0	105	66	0	42	0	122	0.756775054032914	1	0.0653982385263433	10.6991829678433
142	0	144	149	1	41	0	122	3.31540498795221	1	0.0379391139198946	10.7674714275007
143	0	54	26	1	39	0	122	2.73328870296245	1	0.122832715071153	10.9265244157653
144	1	67	142	1	38	0	120	0.628353160980623	1	0.0523679804959106	11.0187587334124
145	1	20	109	1	37	0	120	1.85689249902498	1	0.0333144981618175	11.1205689162718
146	1	50	145	0	36	0	120	0.683634309971239	1	0.0722716138835297	11.2328909210242
147	0	12	97	1	34	0	122	0.805410717031918	1	0.0539372533409889	11.4933327992393
148	0	145	37	1	33	0	122	1.0512857400463	1	0.0147286762939887	0
149	1	55	8	1	32	0	120	0.637648552015889	1	0.0583790713938684	11.8098710579033
150	0	146	104	1	31	0	122	0.769245171977673	1	0.0598501565346299	11.9928937619321
151	0	130	134	1	30	0	122	1.64889261499047	1	0.0716071667106197	12.1947838360194
152	0	102	49	0	29	0	120	1.50017432699678	0	0.0354641533741612	-24.8352251309296
153	1	124	81	0	32	0	120	1.75701050000498	1	0.0664351946044987	11.8098710579033
154	0	45	5	0	31	0	122	0.652609813027084	1	0.0456011144105498	11.9928937619321
155	1	48	89	0	30	0	120	0.886028281995095	1	0.059753200411777	12.1947838360194
156	1	99	112	1	29	0	122	1.30522765999194	0	0.0628439984452283	-24.8352251309296
157	1	140	131	0	32	0	120	0.94580347801093	1	0.0467685184024249	11.8098710579033
158	1	55	136	1	31	0	120	0.770072009006981	1	0.00930746432469325	0
159	0	73	60	0	30	0	120	1.15282519103494	0	0.0497231896125116	-24.3895676720387
160	0	55	68	0	33	0	122	2.68014414096251	1	0.0501171552634064	11.6438897945462
161	1	45	112	0	32	0	120	1.09008796198759	1	0.0152396536254125	0
162	1	106	85	1	31	0	120	0.939942745026201	1	0.0125324783684801	0
163	1	52	68	1	30	0	120	2.60315164696658	1	0.0467009894984166	12.1947838360194
164	0	32	74	1	29	0	122	1.94428960600635	1	0.061570688789565	12.4176125654648
165	1	94	24	1	28	0	120	1.00801843398949	1	0.069568515105523	12.6637412620617
166	0	6	25	0	27	0	122	0.677246739040129	1	0.0941523115153164	12.935876128632
167	0	86	8	0	26	0	122	1.27800319698872	1	0.024592496567331	0
168	0	31	32	1	25	0	120	1.6893322209944	0	0.0558391392058651	-27.1422747560566
169	1	144	109	0	28	0	122	1.29114975500852	0	0.00422759049119994	-0
170	1	138	68	1	31	0	120	0.733277979015838	1	0.0554672283065972	11.9928937619321
171	1	3	44	1	30	0	120	2.13314261101186	1	0.0334357859192721	12.1947838360194
172	0	32	74	1	29	0	122	0.859691907011438	1	0.0877730656169404	12.4176125654648
173	1	137	124	0	28	0	120	0.759297072014306	1	0.044382183570201	12.6637412620617
174	0	142	97	0	27	0	122	2.35025546897668	1	0.109368309525423	12.935876128632
175	1	111	27	0	26	0	120	1.90807582699927	1	0.0530789480718341	13.2371361035193
176	1	76	23	1	25	0	120	1.45368437899742	1	0.0475236621259339	13.5711373780283
177	1	134	99	0	24	0	120	1.35296066699084	1	0.0506053413443185	13.942099533704
178	1	89	89	0	23	0	120	0.936740475997794	1	0.01862829268339	0
179	0	101	124	0	23	0	120	3.13676491798833	0	0.02587702344316	-28.7099600021003
180	0	131	138	0	25	0	122	1.39085898001213	1	0.0501153433368712	13.5711373780283
181	1	67	81	0	24	0	120	0.925358804990537	1	0.00935653707052398	0
182	1	121	105	1	23	0	120	0.782167974975891	1	0.00775483404029124	0
183	0	66	79	1	23	0	122	0.691376688017044	1	0.0344613260088785	14.3549800010502
184	0	142	128	0	22	0	122	0.84547472599661	1	0.0263229425654429	14.8156460292092
185	1	103	35	1	21	0	120	1.35163903801003	1	0.0439871067076221	15.3310969341241
186	0	57	47	1	20	0	122	0.768539578013588	1	0.0932040068151716	15.9097546184508
187	0	51	132	1	19	0	122	0.702231089991983	1	0.023077869527706	0
188	1	62	80	0	19	0	120	0.863059502036776	1	0.00846508891078197	0
189	1	8	85	1	18	0	122	1.03538108599605	0	0.016641242726486	-0
190	1	18	50	1	20	0	122	0.87974290800048	0	0.0150027060904988	-0
191	0	66	54	1	22	0	122	1.79429187701317	1	0.0164341907718496	0
192	0	108	67	0	22	0	120	1.11155719897943	0	0.0159156441841812	-0
193	1	51	96	1	24	0	122	0.817155907978304	0	0.0287782915192673	-27.884199067408
194	0	1	91	1	26	0	120	1.41259501100285	0	0.0496030274977069	-26.4742722070386
195	0	30	76	0	29	0	120	5.15342134196544	0	0.0266780680242037	-24.8352251309296
196	1	143	141	0	31	0	122	1.31381986202905	0	0.0288069817690174	-23.9857875238642
197	0	115	111	1	33	0	122	1.16145712003345	1	0.0201573978438395	0
198	0	68	8	1	32	0	122	0.98544783401303	1	0.0830401517097299	11.8098710579033
199	1	15	50	0	32	0	120	3.52723482699366	1	0.0386208377521958	11.8098710579033
200	0	142	141	0	31	0	122	2.06329671404092	1	0.0432964293154367	11.9928937619321
201	0	115	89	0	31	0	122	2.23387337301392	1	0.0457131815270197	11.9928937619321
202	0	50	76	1	28	0	122	1.12963539996417	1	0.0502748739521655	12.6637412620617
203	0	34	74	1	24	0	122	1.21109931898536	1	0.0399671861590311	13.942099533704
204	0	146	69	0	21	0	120	0.817912990984041	0	0.0818827671107768	-30.6621938682482
205	0	42	148	0	31	0	122	1.06240031699417	1	0.0911473888868242	11.9928937619321
206	1	32	127	0	28	0	120	1.33665048802504	1	0.0280352976149162	12.6637412620617
207	0	58	56	1	25	0	120	0.873209147015586	0	0.0512200821682348	-27.1422747560566
208	0	87	115	1	34	0	122	2.44232011103304	1	0.0422312704037586	11.4933327992393
209	0	103	69	1	32	0	122	1.14224166399799	1	0.0554909984580338	11.8098710579033
210	0	3	77	1	29	0	122	3.32444564095931	1	0.0302989065332622	12.4176125654648
211	1	25	23	1	26	0	120	1.45404594502179	1	0.058466064010949	13.2371361035193
212	1	135	13	1	23	0	122	1.45651066699065	0	0.085776223325374	-28.7099600021003
213	1	74	56	1	32	0	120	0.266897931986023	1	0.0651069345277451	11.8098710579033
214	0	6	138	1	29	0	120	3.70935088500846	0	0.0271527006973907	-24.8352251309296
215	1	108	144	0	37	0	120	3.64663142699283	1	0.0637832716361346	11.1205689162718
216	1	24	12	0	34	0	122	1.00118315097643	0	0.0265033624373808	-22.9866655984786
217	0	48	79	1	42	0	120	3.64732162194559	0	0.0361506405879106	-21.3983659356866
218	0	16	14	1	49	0	122	1.26694062800379	1	0.106220818876001	10.3770475798729
219	0	120	136	1	46	0	120	2.77302111097379	0	0.0802946780693057	-20.9732674606748
220	1	78	2	0	53	0	120	0.938646830036305	1	0.0945157611655983	10.2777223170449
221	0	32	13	0	51	0	122	1.63482077198569	1	0.0536110202752529	10.3217462999684
222	0	16	88	0	49	0	122	2.81301995995454	1	0.0462400799871321	10.3770475798729
223	1	98	31	0	47	0	120	0.858573243021965	1	0.0205389894670957	0
224	0	86	14	0	45	0	122	0.734610804996919	1	0.0481046963157559	10.5317515270736
225	1	126	39	0	42	0	120	0.860898741986603	1	0.0718538980867181	10.6991829678433
226	1	35	41	0	40	0	120	1.59319804201368	1	0.0582568698914058	10.8430184702156
227	1	24	145	1	38	0	120	1.0779020509799	1	0.0763624497808513	11.0187587334124
228	0	145	29	1	36	0	122	1.64728642697446	1	0.040136934025752	11.2328909210242
229	0	122	86	1	34	0	122	1.90417572896695	1	0.018157552119342	0
230	0	134	104	1	32	0	120	1.16396116395481	0	0.0379405995369604	-23.6197421158065
231	1	24	75	1	38	0	120	1.17942118702922	1	0.0413409036007495	11.0187587334124
232	0	71	74	0	36	0	120	2.61602499795845	0	0.0603501517547221	-22.4657818420483
233	0	142	56	0	42	0	122	0.989144085964654	1	0.0474990018643801	10.6991829678433
234	0	86	7	0	40	0	122	1.18747626797995	1	0.0753857134397168	10.8430184702156
235	1	149	27	0	38	0	120	1.70401828497415	1	0.0456039601423717	11.0187587334124
236	0	146	121	1	37	0	122	1.07493270997657	1	0.0276568270559576	11.1205689162718
237	1	97	119	0	35	0	120	1.76442929898622	1	0.0454956418620453	11.3567614963619
238	1	128	18	1	33	0	120	1.33831121295225	1	0.0345460549943429	11.6438897945462
239	0	95	114	1	31	0	120	1.16260429896647	0	0.0494733213817493	-23.9857875238642
240	1	37	136	0	37	0	120	0.921402357984334	1	0.0463894366071791	11.1205689162718
241	1	117	30	0	35	0	120	1.24241010099649	1	0.02780692911055	11.3567614963619
242	0	142	93	1	33	0	122	1.41246307099937	1	0.0570861073200144	11.6438897945462
243	0	119	71	0	32	0	120	1.24140817002626	0	0.0451607854490495	-23.6197421158065
244	0	34	103	0	36	0	122	1.54814339696895	1	0.0525964254227568	11.2328909210242
245	0	80	30	0	35	0	122	4.24447744898498	1	0.0483821660620473	11.3567614963619
246	0	16	45	0	33	0	120	0.991320836008526	0	0.0573224501480984	-23.2877795890924
247	1	33	29	1	38	0	120	1.29283395997481	1	0.0780298300967708	11.0187587334124
248	1	128	134	0	36	0	120	0.893823858001269	1	0.0730990315963254	11.2328909210242
249	0	137	44	0	35	0	122	0.759792778990231	1	0.0491375544849879	11.3567614963619
250	0	68	141	1	33	0	122	1.17372547398554	1	0.0319604030616087	11.6438897945462
251	1	17	81	1	32	0	120	1.16430073499214	1	0.0398150823808582	11.8098710579033
252	1	88	64	1	30	0	120	0.866609146003611	1	0.0322274373256424	12.1947838360194
253	0	101	78	1	29	0	122	0.781148570997175	1	0.0609724134497758	12.4176125654648
254	1	115	148	0	27	0	120	0.971930555999279	1	0.0436045509794917	12.935876128632
255	1	75	16	1	26	0	122	1.25812189205317	0	0.0439496123718242	-26.4742722070386
256	1	37	114	1	30	0	120	2.0448094009771	1	0.00039322694921217	0
257	1	150	134	0	29	0	122	3.69679837999865	0	0.0312199880423454	-24.8352251309296
258	0	78	2	1	33	0	122	0.768303733959328	1	0.0902179604687727	11.6438897945462
259	1	94	129	1	32	0	120	2.40729882998858	1	0.0234279932710369	0
260	0	131	21	0	30	0	120	1.51751147198956	0	0.0403983515250944	-24.3895676720387
261	1	149	63	1	34	0	122	0.958203040005174	0	0.0133768983589151	-0
262	1	65	147	0	38	0	120	0.997220071963966	1	0.0744732327607981	11.0187587334124
263	1	12	5	1	37	0	122	5.27484835201176	0	0.0608118605109206	-22.2411378325436
264	0	141	60	0	41	0	122	0.852942164987326	1	0.0526721505749777	10.7674714275007
265	0	115	110	0	40	0	120	1.07153885799926	0	0.0701830516861817	-21.6860369404312
266	1	25	19	0	44	0	120	0.881983248982579	1	0.0828281034541552	10.5818819156885
267	0	37	68	1	42	0	122	1.0196194369928	1	0.0363994553448393	10.6991829678433
268	1	68	99	0	41	0	120	1.06446543999482	1	0.0562306688517411	10.7674714275007
269	0	146	112	1	40	0	122	3.94764942902839	1	0.0221997148758411	0
270	0	89	100	0	38	0	120	2.35502866102615	0	0.0803364983021453	-22.0375174668248
271	0	134	52	0	42	0	122	0.706929558946285	1	0.0849420350282148	10.6991829678433
272	0	10	94	0	41	0	120	0.8587318030186	0	0.0184905156822585	-0
273	1	149	138	1	45	0	122	0.878877829003613	0	0.0360318569208455	-21.0635030541472
274	1	37	145	0	49	0	120	0.592535111994948	1	0.104731038372592	10.3770475798729
275	1	24	57	0	47	0	120	2.91715881298296	1	0.0654396361034032	10.4460795824527
276	1	60	124	0	46	0	120	1.03893134999089	1	0.0614978432877808	10.4866337303374
277	1	128	103	0	45	0	120	0.601828793005552	1	0.0984943389199201	10.5317515270736
278	1	35	52	1	44	0	122	0.630503034975845	0	0.0640671325163089	-21.1637638313771
279	0	97	2	1	47	0	122	0.979863753949758	1	0.0626325587772996	10.4460795824527
280	1	122	126	1	46	0	120	0.648569409968331	1	0.0754480719843888	10.4866337303374
281	1	30	108	0	45	0	120	2.39830026397249	1	0.0636254125343709	10.5317515270736
282	0	38	130	1	44	0	122	1.04054977704072	1	0.0783981394120311	10.5818819156885
283	1	50	64	1	43	0	120	1.34933106799144	1	0.0502114010095399	10.6375143482975
284	1	8	68	1	41	0	122	1.18738844402833	0	0.025328520727137	-21.5349428550014
285	0	108	126	1	45	0	122	1.25041873799637	1	0.0235761544971264	0
286	0	136	101	1	44	0	122	1.18923321599141	1	0.0383699334014475	10.5818819156885
287	0	71	24	1	43	0	122	2.5108023689827	1	0.0478569714325226	10.6375143482975
288	0	77	85	0	41	0	122	0.986994631006382	1	0.0581876919924632	10.7674714275007
289	0	35	3	0	40	0	122	0.791840536054224	1	0.0452547233875633	10.8430184702156
290	0	19	74	0	39	0	120	2.03815691400087	0	0.0306915661140355	-21.8530488315306
291	0	103	112	1	42	0	120	4.53703322599176	0	0.0710597120734926	-21.3983659356866
292	1	142	7	1	46	0	122	0.786374348041136	0	0.0891048443301189	-20.9732674606748
293	0	112	103	0	49	0	122	1.75223304599058	1	0.0726250243025233	10.3770475798729
294	0	60	63	0	48	0	122	0.951255365973338	1	0.0460067015645473	10.409677003319
295	1	6	136	0	47	0	120	0.662049999984447	1	0.0199390015999711	0
296	0	13	80	1	46	0	122	1.0178533619619	1	0.114117150483234	10.4866337303374
297	0	100	27	0	45	0	122	1.0443801379879	1	0.0390824325675056	10.5317515270736
298	1	133	67	0	44	0	120	0.953803582000546	1	0.049515561317321	10.5818819156885
299	1	43	53	1	43	0	120	1.10497169604059	1	0.0612856707055422	10.6375143482975
300	1	108	83	1	42	0	120	0.698084628034849	1	0.0681766303841069	10.6991829678433
301	1	22	125	0	42	0	120	1.38437193498248	1	0.0427742083964391	10.6991829678433
302	0	61	38	1	39	0	122	1.53715340100462	1	0.0498300557910438	10.9265244157653
303	1	51	56	0	37	0	120	1.07528432598338	1	0.0348552877838543	11.1205689162718
304	0	114	133	1	34	0	122	0.861374468018766	1	0.0481750778363206	11.4933327992393
305	1	66	139	0	32	0	120	2.08154562098207	1	0.0390217942445359	11.8098710579033
306	0	68	82	0	29	0	120	2.21926423202967	0	0.0377101076283056	-24.8352251309296
307	0	91	149	0	37	0	122	0.943521400971804	1	0.131938683375149	11.1205689162718
308	1	74	56	1	35	0	120	3.47919089399511	1	0.0567733833293929	11.3567614963619
309	0	24	46	0	33	0	122	1.25620211003115	1	0.0455563395053671	11.6438897945462
310	0	44	33	1	30	0	122	3.67583054100396	1	0.0280454533357841	12.1947838360194
311	1	147	139	1	28	0	120	2.26865667197853	1	0.0417804943081261	12.6637412620617
312	1	82	13	1	26	0	122	1.17661483900156	0	0.0837879127179711	-26.4742722070386
313	0	51	82	0	32	0	122	0.750736748974305	1	0.0538431866568584	11.8098710579033
314	1	53	86	0	30	0	120	1.03706586000044	1	0.0244761818373062	0
315	0	41	105	0	28	0	122	0.825516486016568	1	0.0566715115766808	12.6637412620617
316	0	80	29	0	26	0	122	0.884652151027694	1	0.0721625976637902	13.2371361035193
317	0	54	99	1	24	0	122	0.775802866031881	1	0.0259526727639004	13.942099533704
318	0	23	41	1	22	0	120	1.75776461703936	0	0.0216060957407434	-0
319	1	24	79	0	28	0	120	1.0199609209667	1	0.121632546537899	12.6637412620617
320	1	82	42	1	26	0	122	1.22474035201594	0	0.0451428159104878	-26.4742722070386
321	1	21	5	0	32	0	120	1.23607820400503	1	0.0358241858681283	11.8098710579033
322	1	6	102	0	30	0	120	3.42551176599227	1	0.0463735168378967	12.1947838360194
323	1	63	134	1	28	0	120	2.12445992097491	1	0.0771879287277284	12.6637412620617
324	0	77	67	0	27	0	122	4.0288957360317	1	0.0390980354086806	12.935876128632
325	0	121	25	1	25	0	122	0.937529649992939	1	5.49654806958217e-05	0
326	1	16	97	1	23	0	120	3.63237947097514	1	0.0262898094344031	14.3549800010502
327	1	49	41	0	21	0	120	1.16517053300049	1	0.0405345988273513	15.3310969341241
328	1	143	114	0	20	0	120	1.3397301309742	1	0.0295367182211517	15.9097546184508
329	1	33	150	1	18	0	122	0.729968116967939	0	0.0124295869391439	-0
330	1	77	79	0	23	0	120	1.29114470002241	1	0.0306249442673232	14.3549800010502
331	0	48	1	0	21	0	122	0.796001777052879	1	0.0240538168615214	0
332	1	89	94	1	20	0	120	1.05767882202053	1	0.0134768229391502	0
333	0	94	73	1	18	0	122	1.60575636802241	1	0.00679051137685217	0
334	0	50	120	0	17	0	122	1.60219218500424	1	0.0427554899281708	18.1395779703971
335	0	133	60	1	15	0	120	1.2405888059875	0	0.037500871997388	-40.4145430652042
336	1	122	10	0	20	0	120	0.947554129990749	1	0.00137120157261031	0
337	0	61	14	0	18	0	122	2.35459311195882	1	0.0570387610945224	17.2999296765722
338	0	87	97	1	17	0	120	1.01001263002399	0	0.0185201270692847	-0
339	0	129	51	1	21	0	122	0.871084254002199	1	0.0355503190576306	15.3310969341241
340	0	60	132	0	20	0	122	0.8830225970014	1	0.0217680123119428	0
341	1	113	105	1	18	0	120	1.01996975200018	1	0.0388226301206046	17.2999296765722
342	0	60	22	0	17	0	122	0.727925411018077	1	0.0190998164195961	0
343	1	146	130	1	16	0	120	1.29817247600295	1	0.0110334668577407	0
344	1	33	127	1	14	0	120	5.55463372403756	1	0.0211532880796281	0
345	1	95	22	0	13	0	120	1.10531878797337	1	0.0217125881115324	0
346	1	20	145	1	12	0	120	2.05979640298756	1	0.0287038136518223	24.7837731398519
347	1	7	17	0	10	0	122	4.49392652302049	0	0	-0
348	1	49	2	1	14	0	120	1.00785707402974	1	0.0199290644655995	0
349	0	54	30	0	13	0	122	0.853667505027261	1	0.0349910522653804	22.9989681740835
350	0	21	140	0	12	0	122	2.03948749700794	1	0.0223875483525608	0
351	0	113	84	1	11	0	120	0.900540868984535	0	0.0439443119803903	-53.8523189571951
352	0	126	144	0	14	0	122	1.46172295499127	1	0.0549909329070592	21.4925959486394
353	0	88	107	0	13	0	120	0.895253686001524	0	0.0395626830598559	-45.9979363481671
354	1	4	99	1	17	0	120	1.62481155601563	1	0.0187564918390477	0
355	0	146	12	0	16	0	120	3.10224088397808	0	0.0900619112093404	-38.2007455133661
356	1	149	56	1	19	0	120	0.87951451796107	1	0.0422971991634861	16.561848118438
357	1	81	58	1	18	0	120	2.57836198096629	1	0.0505075569409417	17.2999296765722
358	1	134	89	1	17	0	120	2.28017620998435	1	0.0759240092340226	18.1395779703971
359	1	72	94	0	16	0	120	2.01775174803333	1	0.0684193154036963	19.100372756683
360	1	111	115	0	14	0	122	1.46990527102025	0	0.0346059349050761	-42.9851918972787
361	1	88	68	0	18	0	120	1.18381322396453	1	0.0695597690272228	17.2999296765722
362	0	44	107	0	17	0	120	0.846914970956277	0	0.0515859227366816	-36.2791559407943
363	0	53	132	0	20	0	120	4.50493356701918	0	0.0717592421352527	-31.8195092369016
364	0	40	90	0	23	0	122	1.07464747398626	1	0.0744444936601056	14.3549800010502
365	0	68	128	0	22	0	122	0.836361729016062	1	0.0391822901081862	14.8156460292092
366	0	54	79	1	21	0	120	1.28979308798444	0	0.0305171095777742	-30.6621938682482
367	1	53	23	1	24	0	120	0.793993505998515	1	0.0568974449159371	13.942099533704
368	1	11	124	0	23	0	120	0.760340243985411	1	0.0470561209595853	14.3549800010502
369	1	64	19	1	22	0	120	0.842142700974364	1	0.0671327796574882	14.8156460292092
370	1	25	28	1	21	0	120	0.993237568996847	1	0.02999100135178	15.3310969341241
371	0	46	99	1	20	0	122	0.893115991028026	1	0.0185582320845484	0
372	1	17	67	1	19	0	120	0.854139064031187	1	0.131980129930507	16.561848118438
373	1	105	49	0	18	0	120	0.954170993994921	1	6.82809764880599e-20	0
374	1	28	58	0	17	0	120	0.713345027004834	1	0.0423365896174847	18.1395779703971
375	1	100	77	1	16	0	120	0.913207614968996	1	0.0267004465522779	19.100372756683
376	1	145	39	0	15	0	120	2.3303720090189	1	0.0409767392000109	20.2072715326021
377	1	7	100	1	14	0	122	1.45003766904119	0	0.0102712495959686	-0
378	0	64	109	0	17	0	120	0.613688851997722	0	0.0172800681329118	-0
379	0	76	47	1	20	0	122	1.24199704098282	1	0.0364759815146935	15.9097546184508
380	1	50	134	0	19	0	120	2.18198165699141	1	0.0352300894295608	16.561848118438
381	1	42	66	0	18	0	120	0.876467884983867	1	0.0224707058886711	0
382	1	128	10	0	17	0	120	0.894130188971758	1	0.119073908835296	18.1395779703971
383	0	47	57	1	16	0	122	0.751378735003527	1	0.0229458940360219	0
384	1	60	34	1	15	0	120	1.15869180404115	1	0.0137245661703925	0
385	0	5	45	1	14	0	122	2.26163533102954	1	0.0225723296670402	0
386	1	149	114	1	13	0	120	0.88178080302896	1	9.00103997947429e-05	0
387	1	32	49	0	13	0	120	1.24353748798603	1	0.0291825693946343	22.9989681740835
388	0	122	31	0	12	0	120	1.5833097010036	0	0.00212603583692535	-0
389	1	96	60	1	14	0	122	1.34076591196936	0	0.0183618924207419	-0
390	1	7	131	1	17	0	120	1.05297446897021	1	0.0457897551524497	18.1395779703971
391	0	72	122	0	16	0	122	1.32710724399658	1	0.014610879719234	0
392	0	2	91	0	15	0	122	1.25647484697402	1	0.0762277217834309	20.2072715326021
393	0	18	139	0	14	0	120	1.39609233301599	0	0.0241873892245202	-0
394	1	72	119	0	17	0	122	0.834038652013987	0	0.037591502304145	-36.2791559407943
395	0	74	122	0	19	0	120	1.4048351800302	0	0.026605963156957	-33.1236962368761
396	0	144	3	0	22	0	120	0.786704869999085	0	0.0615797605489884	-29.6312920584185
397	1	136	25	1	24	0	120	1.20064347801963	1	0.0164095896978467	0
398	1	40	26	0	24	0	122	0.750565755006392	0	0.0141164198859937	-0
399	0	28	77	1	26	0	122	1.08546750003006	1	0.0380711276171789	13.2371361035193
400	0	23	142	1	25	0	120	1.47202093497617	0	0.0794064654473859	-27.1422747560566
401	0	12	65	1	25	0	122	2.57393464498455	1	0.057537539120708	13.5711373780283
402	0	112	45	1	22	0	122	0.862719736993313	1	0.0422916726839601	14.8156460292092
403	0	75	92	0	20	0	122	0.836091683013365	1	0.0286711623177032	15.9097546184508
404	0	18	3	1	17	0	120	1.08017813402694	0	0.0661233671668548	-36.2791559407943
405	1	3	115	0	25	0	120	1.51464774901979	1	0.0102111705119468	0
406	1	103	13	1	23	0	120	3.33143484999891	1	0.0185287790542187	0
407	1	138	92	0	20	0	120	0.819381989014801	1	0.0455988216720122	15.9097546184508
408	1	142	10	1	18	0	122	0.784206617972814	0	0.0387742835925941	-34.5998593531443
409	0	29	28	1	25	0	120	1.37529838399496	0	0.065976007630823	-27.1422747560566
410	0	97	36	0	32	0	122	1.0921959229745	1	0.0438906321127206	11.8098710579033
411	1	122	77	0	30	0	120	1.01282052695751	1	0.0369397546395578	12.1947838360194
412	1	6	122	1	28	0	120	1.37033654103288	1	0.0342492912876097	12.6637412620617
413	0	62	23	0	26	0	120	1.61709190695547	0	0.0691845495326093	-26.4742722070386
414	0	80	5	0	32	0	120	0.997812553017866	0	0.0316244171359032	-23.6197421158065
415	1	5	43	1	38	0	120	4.04206224298105	1	0.0472924042349147	11.0187587334124
416	1	5	24	0	36	0	120	1.36468125000829	1	0.026327341222294	11.2328909210242
417	1	36	8	1	34	0	120	0.924947965948377	1	0.016306929449489	0
418	0	137	35	1	32	0	122	1.90061887801858	1	0.0353366245816268	11.8098710579033
419	1	93	66	1	31	0	120	1.07857518701348	1	1.06073605430917e-07	0
420	0	10	18	0	29	0	120	2.8242944200174	0	0.0763521978217732	-24.8352251309296
421	0	56	66	1	34	0	122	3.60456082003657	1	0.0352207558282135	11.4933327992393
422	1	148	14	1	33	0	122	1.12937409599544	0	0.0645869405584499	-23.2877795890924
423	1	97	17	0	38	0	120	1.35451814800035	1	0.0447594742373158	11.0187587334124
424	1	92	106	1	36	0	120	2.0331515489961	1	0.0611241039392561	11.2328909210242
425	0	75	8	0	34	0	122	2.24447014101315	1	0.0459952340580433	11.4933327992393
426	0	27	129	0	33	0	122	2.28079380397685	1	0.0508698506156297	11.6438897945462
427	0	68	66	0	31	0	122	0.809629580006003	1	0.00243726584904345	0
428	0	95	94	0	30	0	122	0.768294584006071	1	0.0404059540437652	12.1947838360194
429	1	74	110	0	28	0	122	2.63875981402816	0	0.0185391558819247	-0
430	1	105	60	1	33	0	120	0.865718619024847	1	0.063825550021523	11.6438897945462
431	0	122	41	1	31	0	122	1.23584857204696	1	0.0155606127764134	0
432	1	6	56	1	30	0	120	0.929626924043987	1	0.0352649795639596	12.1947838360194
433	0	103	35	0	28	0	122	0.977638288983144	1	0.0101882306627545	0
434	0	6	52	1	27	0	122	1.56713883200428	1	0.0417904851275944	12.935876128632
435	0	20	7	1	25	0	120	2.41480297001544	0	0.0198738604955027	-0
436	1	131	76	0	29	0	120	1.94635500799632	1	0.0648667337460316	12.4176125654648
437	1	45	132	0	28	0	122	1.21138730697567	0	0.0377975774673455	-25.3274825241235
438	1	68	114	1	32	0	120	1.09576674096752	1	0.0437674091677163	11.8098710579033
439	0	48	83	1	31	0	122	1.13651945901802	1	0.0178688618829981	0
440	1	93	74	0	29	0	120	0.944111104006879	1	0.0170817229130402	0
441	0	84	126	1	28	0	122	1.03268859803211	1	0.047105522398545	12.6637412620617
442	0	132	12	0	27	0	120	2.10049872298259	0	0.0407328435896474	-25.871752257264
443	1	58	35	1	31	0	120	1.27038775401888	1	0.0602535881860301	11.9928937619321
444	1	92	53	0	29	0	120	0.840997267980129	1	0.0933757768842288	12.4176125654648
445	0	113	115	0	28	0	120	2.41252373304451	0	0.0601967342671003	-25.3274825241235
446	0	43	13	1	32	0	120	0.969077164016198	0	0.0638607222698435	-23.6197421158065
447	1	14	106	1	36	0	120	2.70375532400794	1	0.118408181772004	11.2328909210242
448	1	58	24	0	34	0	120	0.864702102029696	1	0.100554370472877	11.4933327992393
449	0	147	150	1	33	0	122	0.785898760019336	1	0.0241399038450419	0
450	1	135	91	1	32	0	120	2.13687379600015	1	0.0849523200493887	11.8098710579033
451	0	61	130	1	31	0	122	2.80950638401555	1	0.0306847960757187	11.9928937619321
452	1	38	39	1	29	0	120	0.781548508966807	1	0.0449969679771747	12.4176125654648
453	0	60	9	0	28	0	122	1.43468454497634	1	0.0727668975473767	12.6637412620617
454	0	15	102	1	27	0	122	1.40647058398463	1	0.0626958680776234	12.935876128632
455	1	131	75	0	26	0	122	1.43598601099802	0	0.0132175994283287	-0
456	0	60	100	0	29	0	122	2.08029150398215	1	0.052620200385042	12.4176125654648
457	0	46	103	1	28	0	122	0.994425935961772	1	0.0333303867091556	12.6637412620617
458	0	78	108	0	27	0	122	0.7431257260032	1	0.0256023705879428	12.935876128632
459	0	8	133	0	26	0	122	0.749778745986987	1	0.0563647091838196	13.2371361035193
460	0	81	7	0	25	0	122	0.701643284002785	1	0.0022262688394072	0
461	0	137	58	0	24	0	122	0.64683367300313	1	0.0156223910691277	0
462	1	51	56	1	23	0	120	0.810797111014836	1	0.0268659681673421	14.3549800010502
463	1	111	54	1	22	0	122	1.00785580801312	0	0.0147910450966923	-0
464	1	91	111	0	25	0	120	0.957309741002973	1	0.0360687203029429	13.5711373780283
465	1	1	42	1	24	0	122	0.723904221958946	0	0.0160490918918474	-0
466	1	138	22	0	27	0	120	0.660592806001659	1	0.051979086137503	12.935876128632
467	1	1	1	0	26	0	120	0.990778944978956	1	0.0287440783447151	13.2371361035193
468	1	150	35	1	25	0	122	1.06846534099896	0	0.0132499705444034	-0
469	1	86	63	1	28	0	120	1.06360819999827	1	0.0935057760865827	12.6637412620617
470	0	54	115	1	27	0	122	0.906202398007736	1	0.0177326226171867	0
471	1	30	68	1	26	0	120	0.770196382014547	1	0.0660371196938432	13.2371361035193
472	0	141	16	1	25	0	122	0.949249481025618	1	0.0699381316105619	13.5711373780283
473	1	50	68	0	24	0	120	0.863838419027161	1	0.079321650715505	13.942099533704
474	1	45	69	1	23	0	120	2.01877825998235	1	0.022673634836392	0
475	0	22	35	0	22	0	120	1.71263805101626	0	0.0538883448620603	-29.6312920584185
476	0	16	131	1	25	0	122	1.41559138102457	1	0.0615484811440479	13.5711373780283
477	1	61	148	0	24	0	120	5.07763019599952	1	0.0246063746467366	0
478	1	73	25	1	23	0	120	1.74358213698724	1	0.0988184546926763	14.3549800010502
479	0	140	113	0	22	0	122	0.726050120021682	1	0.0316762007030832	14.8156460292092
480	1	57	18	0	21	0	120	1.23157175403321	1	0.062743482873725	15.3310969341241
481	1	98	144	0	20	0	120	1.3299436380039	1	0.0258133532085214	15.9097546184508
482	1	139	31	0	19	0	122	1.06644782301737	0	0.0455269019393336	-33.1236962368761
483	0	79	146	1	22	0	120	1.14160361001268	0	0.0592780014220021	-29.6312920584185
484	1	115	108	0	24	0	120	1.12476999103092	1	0.043589048819645	13.942099533704
485	1	71	104	1	23	0	122	3.86830640694825	0	0.0551104138390059	-28.7099600021003
486	1	68	115	1	26	0	120	1.76801310904557	1	0.0429058546630764	13.2371361035193
487	1	55	29	1	25	0	120	1.11005305702565	1	3.61563533288683e-05	0
488	0	52	128	1	24	0	120	4.11065306898672	0	0.0543146040154245	-27.884199067408
489	0	87	45	0	27	0	120	0.80082272097934	0	0.0137364857965286	-0
490	1	135	142	1	29	0	120	3.58831042604288	1	0.0772069841436609	12.4176125654648
491	1	105	147	1	29	0	120	1.60229591099778	1	0.0649862097876041	12.4176125654648
492	1	59	107	1	28	0	122	0.584536458016373	0	0.0627301595559881	-25.3274825241235
493	1	1	66	1	30	0	120	0.742280719976407	1	0.0454183672727774	12.1947838360194
494	1	132	34	0	29	0	120	2.67828093102435	1	0.0270844288863022	12.4176125654648
495	0	16	65	0	29	0	122	0.727854021999519	1	0.0290000736207696	12.4176125654648
496	0	112	33	0	28	0	122	0.975142244016752	1	0.0644128417989074	12.6637412620617
497	0	4	94	0	27	0	122	0.78990786196664	1	0.0480160440332329	12.935876128632
498	0	12	149	1	26	0	122	1.06640388001688	1	0.0451310436343383	13.2371361035193
499	1	91	16	1	25	0	120	0.813750792993233	1	0.030605349199403	13.5711373780283
500	1	19	56	1	24	0	120	0.746674182999413	1	2.1546860380546e-06	0
