Trial	Gender_Face1	Face1_nb	Face2_nb	Right_left_flip	Nb_Bubbles	Overlap_Target	Response	RT	Accuracy	Simi2Target	Trial_Reward
1	0	39	134	1	40	0	122	2.31735597900115	1	0	0
2	1	94	130	1	37	0	120	1.92593362391926	1	0	0
3	1	78	67	1	35	0	122	1.39828072790988	0	0	0
4	0	74	51	1	43	0	122	0.936976009048522	1	0	0
5	0	103	129	0	40	0	122	2.10498026991263	1	0	0
6	1	20	54	0	38	0	122	2.83349448302761	0	0	0
7	0	26	140	0	45	0	120	1.27698836103082	0	0	0
8	1	141	114	1	52	0	120	0.87879848619923	1	0	0
9	1	104	79	1	50	0	120	1.09829354495741	1	0	0
10	0	20	141	0	48	0	120	1.09951999713667	0	0	0
11	0	56	7	0	54	0	120	1.4126185469795	0	0	0
12	1	21	74	0	59	0	120	0.815698265796527	1	0	0
13	1	36	105	0	57	0	120	1.16484394902363	1	0	0
14	0	141	124	0	56	0	122	0.963500085053965	1	0	0
15	0	11	129	1	54	0	122	0.730876320973039	1	0	0
16	1	80	98	1	52	0	120	1.04292608285323	1	0	0
17	0	53	8	1	50	0	122	1.44656636891887	1	0	0
18	0	134	147	1	49	0	122	1.38966461201198	1	0	0
19	0	65	27	1	47	0	122	3.19137691403739	1	0	0
20	1	50	146	1	45	0	120	1.69340768014081	1	0	0
21	0	112	81	1	44	0	122	1.12674358487129	1	0	0
22	1	132	105	1	42	0	120	0.951589985052124	1	0	0
23	0	24	137	1	40	0	122	1.05319516989402	1	0	0
24	1	7	126	0	39	0	120	0.545386892976239	1	0	0
25	0	29	111	1	37	0	122	0.664101033005863	1	0	0
26	0	57	97	1	36	0	120	0.570769131183624	0	0	0
27	0	83	81	1	40	0	122	0.688115063123405	1	0	0
28	0	44	118	1	39	0	120	1.47480811108835	0	0	0
29	0	112	25	0	43	0	120	1.49463199707679	0	0	0
30	0	18	124	0	48	0	122	0.782555096084252	1	0	0
31	1	88	89	1	46	0	120	0.628228378947824	1	0	0
32	1	46	84	1	45	0	122	0.777946537127718	0	0	0
33	1	136	46	0	49	0	120	1.8060852130875	1	0	0
34	1	129	36	0	48	0	120	0.62618096685037	1	0	0
35	0	24	8	1	47	0	122	0.679507423890755	1	0	0
36	1	36	7	1	45	0	120	0.611148614902049	1	0	0
37	1	100	14	1	44	0	122	0.702211695956066	0	0	0
38	0	138	133	1	48	0	122	0.832002466078848	1	0	0
39	1	148	56	0	47	0	122	0.884245126973838	0	0	0
40	0	29	103	1	51	0	120	0.837464695097879	0	0	0
41	1	11	42	1	55	0	120	0.826461039949208	1	0	0
42	0	77	13	0	53	0	122	0.598233389900997	1	0	0
43	0	19	134	0	52	0	120	0.772350034909323	0	0	0
44	1	138	142	0	56	0	122	0.560704495990649	0	0	0
45	0	79	82	0	60	0	120	0.84027083707042	0	0	0
46	1	38	148	1	63	0	120	0.603747694054618	1	0	0
47	1	108	45	1	62	0	120	0.760947219096124	1	0	0
48	0	59	20	0	61	0	120	0.599105648929253	0	0	0
49	1	123	67	1	65	0	120	0.774460937129334	1	0	0
50	0	140	128	1	63	0	122	0.674926491919905	1	0	0
51	1	129	44	0	62	0	120	0.524727629963309	1	0	0
52	0	1	62	1	61	0	122	0.614389918046072	1	0	0
53	0	82	101	0	60	0	122	0.657859140075743	1	0	0
54	0	20	71	1	59	0	122	1.0599017709028	1	0	0
55	1	125	3	0	58	0	120	0.609481090912595	1	0	0
56	0	4	83	1	57	0	120	0.539945805910975	0	0	0
57	1	100	85	1	60	0	120	0.97374127805233	1	0	0
58	0	68	34	1	59	0	122	1.07498183101416	1	0	0
59	1	92	54	0	58	0	120	0.612982887076214	1	0	0
60	1	105	147	1	57	0	122	1.75486877397634	0	0	0
61	0	33	26	1	60	0	122	1.44870100612752	1	0	0
62	1	98	111	0	59	0	120	0.437334788031876	1	0	0
63	0	51	62	0	58	0	122	0.457199891097844	1	0	0
64	1	12	31	0	57	0	120	0.563068673014641	1	0	0
65	0	77	114	0	56	0	122	3.12345921108499	1	0	0
66	1	101	29	0	55	0	120	0.762435314944014	1	0	0
67	0	131	9	1	54	0	120	0.714079196099192	0	0	0
68	1	112	59	0	57	0	122	0.71446765307337	0	0	0
69	1	124	145	1	60	0	120	0.553544769994915	1	0	0
70	0	38	30	1	59	0	120	0.737988468958065	0	0	0
71	0	95	73	0	61	0	122	0.562136003049091	1	0	0
72	1	115	32	1	61	0	122	0.562318868003786	0	0	0
73	0	148	51	1	63	0	122	0.631970752030611	1	0	0
74	0	102	84	0	63	0	120	0.691939775133505	0	0	0
75	1	102	15	0	65	0	122	0.638341485988349	0	0	0
76	1	16	120	0	68	0	120	0.541352594969794	1	0	0
77	0	8	12	0	67	0	122	1.02501397300512	1	0	0
78	1	16	100	0	66	0	120	0.661899165948853	1	0	0
79	1	102	149	1	65	0	122	1.25753077981062	0	0	0
80	0	21	91	1	68	0	120	0.65891016786918	0	0	0
81	0	99	67	1	71	0	120	0.613612367073074	0	0	0
82	0	79	25	1	74	0	122	0.563322056084871	1	0	0
83	1	114	94	0	73	0	120	0.577930814120919	1	0	0
84	1	16	33	1	72	0	120	0.634529569884762	1	0	0
85	0	79	11	1	71	0	122	0.699332206975669	1	0	0
86	0	1	26	1	70	0	120	0.907576930942014	0	0	0
87	1	17	54	1	73	0	120	0.613457636907697	1	0	0
88	1	136	101	1	72	0	120	0.522128799930215	1	0	0
89	1	93	20	0	71	0	120	0.745992948068306	1	0	0
90	0	92	121	1	70	0	122	0.594357955968007	1	0	0
91	0	39	42	0	69	0	120	1.1586836099159	0	0	0
92	1	65	98	0	72	0	122	0.918222186854109	0	0	0
93	1	114	37	1	74	0	120	0.582330812932923	1	0	0
94	0	104	31	1	73	0	122	1.32387081696652	1	0	0
95	0	85	44	0	72	0	122	0.635906052775681	1	0	0
96	0	64	75	0	72	0	122	1.04705541906878	1	0	0
97	0	45	150	0	71	0	122	0.796014060964808	1	0	0
98	0	41	135	1	70	0	122	0.64090235112235	1	0	0
99	0	32	53	1	69	0	122	0.71701821195893	1	0	0
100	0	150	40	0	68	0	122	0.645356498891488	1	0	0
101	0	64	122	0	68	0	120	1.10431001218967	0	0	0
102	1	34	140	1	76	0	120	0.931540352990851	1	0	0
103	1	79	16	1	73	0	120	0.718682777136564	1	0	0
104	1	46	126	1	71	0	122	1.04405342508107	0	0	0
105	0	32	146	1	78	0	122	1.50346643198282	1	0	0
106	1	25	123	0	76	0	120	0.737485687946901	1	0	0
107	0	96	56	1	74	0	122	0.848592266906053	1	0	0
108	0	33	122	1	72	0	122	0.787932536099106	1	0	0
109	1	81	120	1	70	0	120	0.754076613113284	1	0	0
110	0	145	31	1	68	0	122	0.721663434058428	1	0	0
111	1	143	15	0	66	0	120	0.632283234037459	1	0	0
112	1	120	143	0	64	0	122	0.902183094993234	0	0	0
113	0	51	64	0	70	0	122	0.529574055923149	1	0	0
114	1	4	14	1	68	0	120	0.63967240601778	1	0	0
115	1	149	21	1	66	0	122	0.769399598939344	0	0	0
116	0	110	103	0	72	0	122	0.76889210799709	1	0	0
117	1	58	73	0	70	0	120	0.695187791949138	1	0	0
118	0	84	13	0	68	0	122	0.944396999897435	1	0	0
119	0	128	144	1	67	0	122	0.911135742906481	1	0	0
120	1	48	60	0	65	0	120	0.560560717014596	1	0	0
121	0	140	13	0	63	0	122	1.3763018110767	1	0	0
122	0	23	76	0	61	0	122	0.677164667984471	1	0	0
123	0	87	128	1	60	0	120	1.26291911909357	0	0	0
124	0	143	6	0	65	0	122	0.690792650915682	1	0	0
125	1	79	34	1	63	0	120	0.876174279022962	1	0	0
126	0	117	103	1	62	0	120	0.862006859853864	0	0	0
127	1	18	23	1	67	0	120	0.841666352003813	1	0	0
128	0	75	86	0	65	0	122	0.924290008842945	1	0	0
129	1	36	136	1	63	0	120	0.726400427985936	1	0	0
130	0	110	93	1	62	0	122	0.836382990004495	1	0	0
131	1	74	128	1	60	0	122	0.897196032106876	0	0	0
132	0	28	113	0	65	0	122	0.691678378963843	1	0	0
133	0	56	40	0	64	0	122	1.81320542306639	1	0	0
134	0	56	19	1	62	0	120	0.801561813103035	0	0	0
135	0	131	124	1	66	0	120	0.878898293012753	0	0	0
136	1	84	75	1	71	0	120	0.657160334987566	1	0	0
137	1	9	4	0	69	0	120	0.572260408196598	1	0	0
138	1	5	130	1	68	0	120	0.788008739938959	1	0	0
139	1	127	64	0	67	0	122	0.600820071995258	0	0	0
140	1	125	76	1	71	0	122	1.51756292395294	0	0	0
141	0	29	47	1	75	0	122	0.631255785934627	1	0	0
142	1	26	88	1	73	0	120	0.618170067900792	1	0	0
143	0	126	24	1	72	0	122	0.766295097069815	1	0	0
144	1	80	49	0	71	0	120	0.643017468973994	1	0	0
145	0	127	65	1	70	0	122	1.24032738897949	1	0	0
146	1	44	60	0	68	0	122	0.740437661996111	0	0	0
147	0	24	106	0	72	0	122	3.35787528916262	1	0	0
148	0	66	25	1	71	0	122	0.779641492059454	1	0	0
149	0	102	69	0	70	0	122	0.850114441942424	1	0	0
150	0	67	17	1	68	0	122	1.45842227688991	1	0	0
151	1	3	74	0	67	0	120	0.670465414877981	1	0	0
152	1	72	44	1	66	0	122	1.69066676893272	0	0	0
153	1	42	146	0	70	0	122	1.08698398503475	0	0	0
154	0	6	79	0	73	0	122	2.0619262449909	1	0	0
155	0	75	55	1	72	0	122	1.23915074719116	1	0	0
156	0	103	97	1	71	0	122	1.15803487808444	1	0	0
157	1	143	58	1	70	0	120	0.930410681059584	1	0	0
158	1	115	116	0	68	0	122	1.10865063802339	0	0	0
159	1	17	121	0	72	0	120	1.10674422816373	1	0	0
160	0	5	132	1	71	0	122	0.894227168988436	1	0	0
161	0	150	29	0	70	0	122	0.564059734111652	1	0	0
162	0	78	29	0	69	0	122	0.636101431911811	1	0	0
163	1	9	13	0	67	0	122	0.601817863993347	0	0	0
164	0	39	56	1	71	0	120	0.774880944984034	0	0	0
165	0	72	82	1	74	0	122	0.538855127990246	1	0	0
166	0	140	28	1	73	0	120	0.763181696180254	0	0	0
167	1	68	88	1	76	0	120	0.705498535884544	1	0	0
168	1	47	45	1	75	0	120	0.636505221016705	1	0	0
169	0	107	62	1	74	0	122	1.20011355588213	1	0	0
170	1	41	50	0	73	0	122	1.02948980988003	0	0	0
171	0	68	135	1	76	0	122	0.783262178068981	1	0	0
172	0	64	103	1	75	0	122	0.775222085183486	1	0	0
173	1	13	102	0	74	0	120	0.731517474865541	1	0	0
174	0	84	76	1	73	0	122	0.883520937059075	1	0	0
175	0	137	99	1	72	0	122	0.839830413926393	1	0	0
176	1	101	11	1	71	0	120	0.617352115921676	1	0	0
177	1	115	108	1	70	0	122	0.693317007971928	0	0	0
178	1	98	111	1	73	0	120	0.705020562047139	1	0	0
179	1	80	26	1	72	0	120	0.793471252080053	1	0	0
180	0	7	139	1	71	0	122	1.00001510791481	1	0	0
181	0	98	87	1	70	0	122	0.810259589925408	1	0	0
182	1	2	10	1	69	0	120	0.807711292989552	1	0	0
183	0	112	100	0	68	0	122	0.966563303954899	1	0	0
184	0	51	37	0	67	0	122	0.979124546982348	1	0	0
185	1	10	12	0	66	0	120	0.746735302964225	1	0	0
186	0	71	137	1	66	0	122	0.688558105146512	1	0	0
187	0	150	29	0	65	0	122	0.706597842043266	1	0	0
188	0	80	132	0	64	0	120	0.897961907088757	0	0	0
189	1	29	85	0	66	0	122	0.724501442164183	0	0	0
190	1	60	107	0	69	0	120	0.588775499956682	1	0	0
191	1	118	136	1	68	0	122	0.70613839616999	0	0	0
192	0	108	115	0	71	0	122	0.683373867999762	1	0	0
193	1	73	110	1	70	0	120	0.550246135797352	1	0	0
194	1	100	39	0	69	0	120	1.39914247905836	1	0	0
195	0	107	67	1	68	0	122	0.884792031021789	1	0	0
196	0	51	149	0	67	0	122	0.651438814820722	1	0	0
197	0	134	91	1	67	0	120	1.28328167181462	0	0	0
198	1	9	41	1	69	0	120	0.629984270082787	1	0	0
199	0	48	97	0	68	0	122	0.730269101914018	1	0	0
200	0	93	25	0	67	0	122	1.75597875285894	1	0	0
201	0	55	41	0	67	0	120	4.21445217798464	0	0	0
202	0	125	25	1	75	0	120	0.73798624612391	0	0	0
203	1	60	129	1	82	0	120	0.694384742062539	1	0	0
204	0	140	93	1	79	0	122	0.763839616905898	1	0	0
205	0	31	21	1	77	0	122	0.610538575099781	1	0	0
206	1	125	131	0	75	0	122	0.879732174100354	0	0	0
207	0	10	140	1	81	0	122	0.684294429142028	1	0	0
208	1	82	102	0	79	0	120	0.573640041984618	1	0	0
209	0	82	139	1	78	0	122	0.450159045867622	1	0	0
210	1	48	1	1	76	0	120	0.621331372996792	1	0	0
211	0	62	81	1	74	0	122	0.657341436948627	1	0	0
212	1	82	97	1	72	0	120	0.548140745842829	1	0	0
213	0	7	124	0	70	0	122	0.573898502159864	1	0	0
214	1	67	100	0	68	0	120	0.52965668682009	1	0	0
215	1	15	49	0	66	0	120	0.985785529948771	1	0	0
216	0	40	8	0	64	0	120	1.21526236482896	0	0	0
217	1	133	58	1	70	0	120	0.654650172917172	1	0	0
218	0	45	129	0	68	0	122	0.519698654068634	1	0	0
219	0	20	131	1	66	0	120	0.57199016190134	0	0	0
220	1	128	18	0	72	0	120	0.680955884046853	1	0	0
221	0	127	135	0	70	0	122	1.00028761499561	1	0	0
222	1	68	21	1	68	0	120	0.792686105938628	1	0	0
223	0	12	11	1	67	0	122	1.08392600202933	1	0	0
224	1	41	131	0	65	0	122	0.799035069998354	0	0	0
225	0	48	32	1	70	0	120	0.716341465944424	0	0	0
226	0	128	90	1	75	0	122	0.621327952947468	1	0	0
227	1	48	95	0	74	0	120	0.618579088943079	1	0	0
228	0	17	136	1	72	0	122	0.628597091883421	1	0	0
229	1	131	50	0	71	0	120	0.787185591878369	1	0	0
230	0	87	109	1	69	0	122	0.743123599793762	1	0	0
231	1	79	122	0	68	0	120	1.1764804800041	1	0	0
232	0	132	93	1	66	0	122	0.862472102046013	1	0	0
233	1	134	149	1	65	0	120	0.628675482003018	1	0	0
234	0	48	68	0	63	0	122	0.978188168024644	1	0	0
235	1	67	72	0	62	0	120	0.64143619290553	1	0	0
236	0	126	138	1	61	0	122	2.19771916395985	1	0	0
237	0	93	30	1	59	0	122	1.01187534211203	1	0	0
238	0	38	150	1	58	0	120	0.624378836015239	0	0	0
239	0	95	50	1	62	0	122	0.561849749879912	1	0	0
240	0	5	104	1	60	0	122	0.592322250129655	1	0	0
241	0	63	54	0	59	0	120	0.561018139123917	0	0	0
242	1	80	131	1	63	0	122	0.557272546924651	0	0	0
243	1	35	116	1	67	0	120	0.763590818969533	1	0	0
244	0	19	106	1	66	0	122	0.789030840853229	1	0	0
245	0	65	124	0	64	0	122	0.733629171038046	1	0	0
246	1	11	81	0	63	0	120	0.55996096204035	1	0	0
247	0	65	59	0	62	0	122	0.857022101990879	1	0	0
248	0	19	13	1	61	0	120	0.586180091137066	0	0	0
249	1	98	9	0	64	0	122	1.31939615099691	0	0	0
250	1	18	115	1	68	0	120	0.543392539024353	1	0	0
251	1	46	100	0	67	0	120	0.614821225870401	1	0	0
252	1	107	147	0	66	0	120	0.515151068102568	1	0	0
253	0	102	123	1	64	0	122	0.596940367948264	1	0	0
254	1	46	105	0	63	0	120	0.728963988134637	1	0	0
255	0	16	5	1	62	0	120	0.593017979059368	0	0	0
256	0	37	35	0	66	0	120	1.345372044947	0	0	0
257	1	59	107	1	69	0	120	0.877960790181533	1	0	0
258	1	123	132	0	68	0	120	0.727810533018783	1	0	0
259	1	81	61	1	67	0	120	0.921417067060247	1	0	0
260	1	69	56	1	66	0	120	0.744785625021905	1	0	0
261	1	39	116	1	65	0	120	1.09104306180961	1	0	0
262	0	113	24	1	64	0	122	0.729313314892352	1	0	0
263	0	109	8	1	63	0	122	0.731642858823761	1	0	0
264	1	80	47	0	62	0	122	0.681497226003557	0	0	0
265	0	110	8	1	65	0	122	0.819467161083594	1	0	0
266	0	146	46	0	64	0	122	0.762235005851835	1	0	0
267	0	14	29	1	63	0	122	0.9981826080475	1	0	0
268	0	95	103	0	62	0	122	0.65222746389918	1	0	0
269	0	76	44	1	61	0	122	0.743272236082703	1	0	0
270	0	57	18	1	60	0	122	0.592097998829558	1	0	0
271	1	93	108	1	59	0	122	0.791466624941677	0	0	0
272	0	134	62	1	62	0	122	0.885553300147876	1	0	0
273	1	62	2	1	61	0	120	0.894562198081985	1	0	0
274	0	52	142	0	60	0	120	0.89373587211594	0	0	0
275	1	124	144	0	63	0	120	1.09554824605584	1	0	0
276	1	145	74	0	62	0	122	0.793227164074779	0	0	0
277	0	124	45	1	64	0	122	1.36085665598512	1	0	0
278	1	69	102	1	63	0	120	1.62204887298867	1	0	0
279	0	48	42	1	63	0	122	0.788733239052817	1	0	0
280	1	104	17	1	62	0	122	0.810495455982164	0	0	0
281	0	25	96	1	64	0	120	0.706141458125785	0	0	0
282	1	63	14	0	67	0	120	0.59864304587245	1	0	0
283	0	124	91	0	66	0	122	1.07561888103373	1	0	0
284	1	71	75	0	65	0	122	1.14008372696117	0	0	0
285	1	149	11	0	68	0	122	0.875413408037275	0	0	0
286	0	71	58	1	70	0	122	1.16553623299114	1	0	0
287	0	36	106	0	70	0	122	0.571799348806962	1	0	0
288	0	96	90	0	69	0	120	0.852947348961607	0	0	0
289	0	114	57	0	71	0	120	0.821605578996241	0	0	0
290	1	111	102	1	74	0	120	0.63393205893226	1	0	0
291	0	111	17	1	73	0	122	1.17614663508721	1	0	0
292	1	52	18	1	72	0	120	0.875974146882072	1	0	0
293	0	63	32	1	71	0	122	0.672231630887836	1	0	0
294	1	47	111	0	70	0	120	1.2407691872213	1	0	0
295	0	119	140	0	70	0	122	0.638385174795985	1	0	0
296	0	110	19	0	69	0	120	0.560566721949726	0	0	0
297	1	32	5	0	71	0	122	0.607925838790834	0	0	0
298	1	103	71	1	74	0	122	1.03838295885362	0	0	0
299	1	45	38	1	76	0	120	0.659597089979798	1	0	0
300	1	49	85	1	75	0	120	0.628070455044508	1	0	0
