Trial	Gender_Face1	Face1_nb	Face2_nb	Right_left_flip	Nb_Bubbles	Overlap_Target	Response	RT	Accuracy	Simi2Target	Trial_Reward
1	0	104	44	0	14	0	120	6.68495572393294	1	0	0
2	1	118	57	0	11	0	122	1.46941858204082	1	0	0
3	0	7	122	0	9	0	120	1.74068872199859	1	0	0
4	1	45	57	1	6	0	120	1.08702267194167	0	0	0
5	1	33	121	1	14	0	120	0.830820037052035	0	0	0
6	1	90	7	1	21	0	122	1.0440054780338	1	0	0
7	1	135	133	1	19	0	122	1.02845855802298	1	0	0
8	0	107	140	0	17	0	120	1.44022496405523	1	0	0
9	0	31	103	1	15	0	120	1.41878800711129	1	0	0
10	1	24	131	0	13	0	122	1.05899526400026	1	0	0
11	1	4	125	1	11	0	120	1.59042972407769	0	0	0
12	1	26	149	0	17	0	122	0.825180945103057	1	0	0
13	0	87	148	1	15	0	120	1.17208183999173	1	0	0
14	0	61	61	0	13	0	120	0.882768764975481	1	0	0
15	1	10	6	1	11	0	122	0.818909252993762	1	0	0
16	0	60	46	0	9	0	120	0.848807734088041	1	0	0
17	1	53	96	0	7	0	120	2.4831979040755	0	0	0
18	1	128	127	0	13	0	122	0.859396934043616	1	0	0
19	1	49	51	1	11	0	120	1.17596638598479	0	0	0
20	1	31	136	1	17	0	122	2.77159016195219	1	0	0
21	0	132	52	1	15	0	122	0.976026086951606	0	0	0
22	1	117	130	0	20	0	122	1.0969466100214	1	0	0
23	0	119	127	1	19	0	120	0.810722173075192	1	0	0
24	0	48	83	1	17	0	120	0.920224728994071	1	0	0
25	0	110	19	1	15	0	120	1.76166103500873	1	0	0
26	0	49	113	1	14	0	120	1.50185445300303	1	0	0
27	1	86	63	0	12	0	122	1.29689232504461	1	0	0
28	1	80	12	1	10	0	122	3.13164473697543	1	0	0
29	0	125	8	0	9	0	120	1.46562651102431	1	0	0
30	0	100	110	0	7	0	122	1.3829086109763	0	0	0
31	0	20	106	1	12	0	120	1.38768119201995	1	0	0
32	1	148	113	1	11	0	122	2.02899894095026	1	0	0
33	1	86	27	0	9	0	122	0.98582105897367	1	0	0
34	0	137	35	1	8	0	120	0.862801062990911	1	0	0
35	1	10	136	0	6	0	122	0.820033335010521	1	0	0
36	0	30	129	1	5	0	120	1.40788343292661	1	0	0
37	0	129	32	1	3	0	120	4.59065226605162	1	0	0
38	0	55	103	1	2	0	122	4.08739690796938	0	0	0
39	1	76	137	0	6	0	122	1.60555088403635	1	0	0
40	1	148	134	1	5	0	122	1.46584488195367	1	0	0
41	1	53	82	0	4	0	120	3.33332932298072	0	0	0
42	1	126	82	0	7	0	122	4.35061724495608	1	0	0
43	0	117	102	1	6	0	122	0.545990590006113	0	0	0
44	0	99	34	0	10	0	120	1.47893719794229	1	0	0
45	1	20	67	1	9	0	122	1.28975602402352	1	0	0
46	0	37	110	1	8	0	122	2.17758399492595	0	0	0
47	0	106	67	1	11	0	120	0.687649357016198	1	0	0
48	1	72	117	0	10	0	120	1.16869034199044	0	0	0
49	0	17	135	0	14	0	120	0.14799556590151	1	0	0
50	0	101	41	1	12	0	122	1.54356744000688	0	0	0
51	1	44	95	0	16	0	122	1.07215268607251	1	0	0
52	1	105	73	0	15	0	120	0.699686023057438	0	0	0
53	1	88	26	0	19	0	120	2.02931822999381	0	0	0
54	0	110	100	1	22	0	120	1.17721763893496	1	0	0
55	0	37	65	1	21	0	120	0.991527883918025	1	0	0
56	0	98	25	0	20	0	120	1.13600135000888	1	0	0
57	0	139	73	1	19	0	120	0.606689378037117	1	0	0
58	0	5	147	0	18	0	120	0.908905087038875	1	0	0
59	0	95	108	0	16	0	120	0.767472025938332	1	0	0
60	1	148	39	1	15	0	120	0.937317489064299	0	0	0
61	0	60	64	1	19	0	120	0.619119189912453	1	0	0
62	0	84	45	1	17	0	120	1.65425622405019	1	0	0
63	1	45	107	1	16	0	122	1.64523963991087	1	0	0
64	0	44	40	1	15	0	120	0.840684326947667	1	0	0
65	0	70	67	1	14	0	120	0.886651140986942	1	0	0
66	0	103	1	1	13	0	120	0.788820795947686	1	0	0
67	0	73	103	1	12	0	122	1.21431508997921	0	0	0
68	0	69	58	0	15	0	120	0.683379763970152	1	0	0
69	1	107	57	1	14	0	120	3.98028028593399	0	0	0
70	1	24	65	1	17	0	122	2.37989066704176	1	0	0
71	1	71	68	1	16	0	122	1.01797590393107	1	0	0
72	0	40	13	0	15	0	120	0.853552174055949	1	0	0
73	1	31	135	1	14	0	122	1.98626152204815	1	0	0
74	0	142	32	1	13	0	120	0.194048563949764	1	0	0
75	0	90	24	0	12	0	122	4.55079866899177	0	0	0
76	0	63	85	1	15	0	122	1.87621156999376	0	0	0
77	0	83	6	1	18	0	120	0.864251146907918	1	0	0
78	0	110	27	0	17	0	120	1.42802453401964	1	0	0
79	1	135	58	0	16	0	120	1.67732806201093	0	0	0
80	1	135	36	1	19	0	120	2.31880999496207	0	0	0
81	1	51	137	1	22	0	120	1.41574423003476	0	0	0
82	1	4	148	1	24	0	122	2.20807641104329	1	0	0
83	1	106	21	1	24	0	122	1.88755809294526	1	0	0
84	1	123	109	0	23	0	122	1.97534618293867	1	0	0
85	1	10	149	0	22	0	122	2.7274397960864	1	0	0
86	1	106	149	1	21	0	122	0.408414217061363	1	0	0
87	0	19	84	1	20	0	120	0.702436987077817	1	0	0
88	1	96	66	0	19	0	122	0.784079344943166	1	0	0
89	1	6	91	0	18	0	122	2.27881811803672	1	0	0
90	1	63	58	1	17	0	122	2.09850737499073	1	0	0
91	0	22	12	0	17	0	120	0.77957091096323	1	0	0
92	0	31	127	0	16	0	120	2.58208766300231	1	0	0
93	1	58	127	1	15	0	120	1.20724947995041	0	0	0
94	0	147	136	0	17	0	120	0.916056130081415	1	0	0
95	1	21	112	1	16	0	122	0.837611331022345	1	0	0
96	0	19	36	0	16	0	122	0.793590010958724	0	0	0
97	1	97	41	1	18	0	120	0.966165321995504	0	0	0
98	0	75	24	1	20	0	120	2.76725590100978	1	0	0
99	1	92	124	1	20	0	122	0.878234325093217	1	0	0
100	0	90	86	1	19	0	120	0.716108851018362	1	0	0
101	1	78	12	1	19	0	122	4.05660965701099	1	0	0
102	1	99	98	1	16	0	122	1.59248661599122	1	0	0
103	1	107	6	0	14	0	122	0.681589593994431	1	0	0
104	1	71	73	0	11	0	120	0.490922089084052	0	0	0
105	1	9	2	0	19	0	122	1.40272431296762	1	0	0
106	0	106	127	1	17	0	120	0.646975283045322	1	0	0
107	0	40	2	1	15	0	120	1.26606307306793	1	0	0
108	0	123	13	1	12	0	120	1.31709849997424	1	0	0
109	0	87	103	1	10	0	120	1.66345772601198	1	0	0
110	1	40	9	1	8	0	122	2.63386998698115	1	0	0
111	1	28	7	1	6	0	122	0.272332824999467	1	0	0
112	1	58	46	1	3	0	122	1.78954402799718	1	0	0
113	0	65	116	0	1	0	122	39.3873728569597	0	0	0
114	0	50	39	1	8	0	122	12.937894726987	0	0	0
115	1	150	107	1	14	0	122	0.958225584006868	1	0	0
116	1	28	49	0	12	0	122	0.996193928061984	1	0	0
117	0	39	136	1	10	0	120	2.44894474500325	1	0	0
118	0	28	2	0	8	0	120	2.34844276797958	1	0	0
119	0	67	36	0	6	0	120	1.20503253501374	1	0	0
120	1	16	78	1	4	0	122	1.16174270689953	1	0	0
121	1	146	117	0	3	0	122	2.49561492702924	1	0	0
122	1	40	84	0	1	0	120	1.11634188098833	0	0	0
123	0	115	97	1	6	0	122	3.205445642001	0	0	0
124	0	119	16	1	12	0	120	0.852689718012698	1	0	0
125	0	140	19	0	10	0	120	0.933594841044396	1	0	0
126	1	129	60	1	8	0	120	2.30219535599463	0	0	0
127	1	1	121	1	14	0	120	0.760435292031616	0	0	0
128	1	145	40	1	19	0	120	1.13638799509499	0	0	0
129	0	63	102	0	24	0	120	0.649756139959209	1	0	0
130	0	130	132	1	22	0	120	1.47028425999451	1	0	0
131	1	135	122	0	20	0	122	0.836759592057206	1	0	0
132	0	8	137	0	19	0	120	0.914906824938953	1	0	0
133	1	4	122	0	17	0	120	1.16243569389917	0	0	0
134	0	148	119	0	22	0	120	0.0748038189485669	1	0	0
135	0	92	136	0	20	0	120	0.940547553007491	1	0	0
136	0	97	13	1	19	0	120	0.772144749062136	1	0	0
137	1	42	16	1	18	0	120	1.22126417199615	0	0	0
138	1	92	43	1	22	0	122	0.838361087953672	1	0	0
139	0	144	66	0	21	0	120	0.681989492033608	1	0	0
140	0	31	81	1	19	0	120	0.812539021018893	1	0	0
141	1	99	97	1	18	0	122	2.29762407089584	1	0	0
142	1	105	40	0	16	0	122	1.82917331904173	1	0	0
143	0	104	44	1	15	0	120	2.36962697596755	1	0	0
144	0	77	23	1	14	0	120	1.77695743204094	1	0	0
145	1	122	126	0	12	0	122	0.815647415001877	1	0	0
146	1	118	80	1	11	0	120	2.81029957905412	0	0	0
147	0	89	129	0	15	0	120	0.703865956980735	1	0	0
148	0	27	115	1	14	0	122	0.885278446949087	0	0	0
149	1	28	43	1	18	0	122	1.15081472299062	1	0	0
150	1	5	45	1	16	0	122	2.76547337300144	1	0	0
151	0	76	38	1	15	0	120	1.12496864795685	1	0	0
152	0	70	117	0	14	0	120	1.2072002349887	1	0	0
153	0	11	22	1	13	0	120	0.772173110046424	1	0	0
154	1	104	75	0	12	0	120	2.42994256399106	0	0	0
155	0	73	10	1	15	0	120	0.719180851010606	1	0	0
156	1	40	75	0	14	0	122	1.18956101394724	1	0	0
157	0	62	145	1	13	0	120	1.18104627705179	1	0	0
158	0	99	132	0	12	0	120	1.41469643998425	1	0	0
159	0	123	127	1	11	0	120	1.89010001695715	1	0	0
160	0	25	136	0	10	0	122	0.644212277024053	0	0	0
161	0	48	52	1	13	0	120	1.32016427302733	1	0	0
162	1	71	104	1	12	0	120	3.69973088905681	0	0	0
163	0	80	42	1	15	0	120	1.41209501808044	1	0	0
164	1	96	68	0	14	0	122	1.46637535898481	1	0	0
165	0	72	99	1	13	0	120	1.1046867009718	1	0	0
166	1	120	1	1	12	0	120	3.2728924730327	0	0	0
167	1	9	44	0	15	0	122	1.64443936804309	1	0	0
168	1	71	111	1	14	0	120	1.00058657501359	0	0	0
169	1	76	72	0	17	0	122	0.465815854026005	1	0	0
170	1	80	69	1	16	0	122	1.37466606800444	1	0	0
171	1	81	79	0	15	0	122	1.11613882693928	1	0	0
172	1	60	112	0	14	0	122	2.19913592201192	1	0	0
173	1	125	112	0	13	0	120	1.72873218497261	0	0	0
174	0	123	18	0	16	0	122	1.63291486597154	0	0	0
175	1	135	114	0	19	0	122	0.716937665943988	1	0	0
176	0	104	34	1	18	0	120	3.52697836200241	1	0	0
177	1	53	43	1	17	0	120	1.18241696397308	0	0	0
178	1	26	76	1	20	0	122	0.882651994004846	1	0	0
179	0	116	94	1	19	0	122	1.47014144598506	0	0	0
180	1	22	93	1	22	0	122	0.549425708944909	1	0	0
181	1	23	116	0	21	0	120	1.14400526892859	0	0	0
182	1	47	28	1	23	0	122	1.65237584803253	1	0	0
183	0	123	23	0	22	0	120	2.19188674003817	1	0	0
184	0	106	33	1	22	0	120	1.05656346108299	1	0	0
185	1	36	21	1	21	0	120	1.84291529795155	0	0	0
186	0	44	48	1	23	0	120	1.83127711899579	1	0	0
187	0	42	84	1	22	0	120	2.34502489701845	1	0	0
188	1	50	106	1	21	0	122	4.09534906200133	1	0	0
189	0	136	113	0	21	0	120	0.73496838088613	1	0	0
190	1	58	45	1	20	0	120	0.462128720944747	0	0	0
191	1	125	78	0	22	0	122	2.16752288804855	1	0	0
192	0	81	107	1	21	0	120	0.710654439986683	1	0	0
193	1	26	119	1	21	0	122	2.44670164899435	1	0	0
194	0	44	89	1	20	0	122	1.9129165969789	0	0	0
195	0	19	45	1	22	0	120	2.85848609602544	1	0	0
196	1	50	89	0	21	0	122	1.08459715999197	1	0	0
197	1	59	134	0	21	0	122	1.33211250102613	1	0	0
198	0	132	131	0	20	0	120	2.16489950206596	1	0	0
199	1	7	76	1	19	0	122	1.55557288904674	1	0	0
200	1	136	147	1	18	0	122	2.82507830904797	1	0	0
201	1	97	95	1	18	0	122	5.14765175397042	1	0	0
202	0	83	144	1	15	0	120	1.87464507401455	1	0	0
203	1	124	61	0	13	0	120	1.64950857195072	0	0	0
204	0	45	90	0	21	0	120	1.14415837801062	1	0	0
205	0	103	7	1	18	0	120	0.742865693988279	1	0	0
206	1	150	5	0	16	0	120	0.666965381009504	0	0	0
207	1	62	58	0	23	0	122	1.10886783094611	1	0	0
208	1	147	56	1	21	0	120	0.614172548055649	0	0	0
209	1	4	8	1	28	0	120	2.69846509501804	0	0	0
210	0	31	104	1	34	0	120	0.917957333032973	1	0	0
211	1	10	34	1	32	0	122	2.28457778808661	1	0	0
212	1	111	135	1	30	0	122	2.06464248406701	1	0	0
213	0	124	4	1	28	0	120	1.01954480400309	1	0	0
214	1	147	77	0	26	0	122	0.754970852052793	1	0	0
215	0	54	12	0	25	0	120	0.67629324097652	1	0	0
216	1	139	19	0	23	0	120	1.77723606699146	0	0	0
217	0	126	120	0	28	0	120	0.902477292926051	1	0	0
218	0	101	96	0	27	0	120	0.563396671088412	1	0	0
219	1	24	11	0	25	0	122	1.51345719501842	1	0	0
220	0	126	105	0	23	0	120	2.21084595192224	1	0	0
221	0	20	54	0	22	0	122	1.24848625296727	0	0	0
222	0	52	75	1	27	0	122	4.06163788202684	0	0	0
223	1	1	98	1	32	0	122	1.92822616605554	1	0	0
224	1	3	148	1	30	0	122	1.05295201099943	1	0	0
225	1	33	136	1	29	0	122	1.81674116710201	1	0	0
226	0	109	87	0	27	0	120	0.900857788044959	1	0	0
227	0	26	99	1	26	0	120	1.25472239591181	1	0	0
228	1	63	128	0	24	0	122	1.24920830503106	1	0	0
229	1	72	135	0	23	0	122	2.877396847005	1	0	0
230	0	29	42	0	21	0	120	1.64733469195198	1	0	0
231	0	120	34	1	20	0	120	1.42894360702485	1	0	0
232	1	42	66	1	18	0	120	0.904207902960479	0	0	0
233	0	61	59	0	23	0	120	6.72195768402889	1	0	0
234	1	134	7	1	21	0	122	3.03487919294275	1	0	0
235	0	8	72	0	20	0	120	0.712836981983855	1	0	0
236	0	1	139	1	18	0	120	0.859890270978212	1	0	0
237	1	102	29	1	17	0	122	5.36957549198996	1	0	0
238	0	72	101	0	16	0	120	0.696891434956342	1	0	0
239	1	67	4	1	14	0	122	1.08179843809921	1	0	0
240	1	111	98	0	13	0	122	1.79468481196091	1	0	0
241	0	136	141	0	12	0	120	0.487549970974214	1	0	0
242	0	92	47	1	11	0	120	0.788758222013712	1	0	0
243	1	111	4	1	9	0	122	2.18836810905486	1	0	0
244	1	72	90	1	8	0	122	1.72193949797656	1	0	0
245	0	41	79	1	7	0	120	0.978067227988504	1	0	0
246	0	80	128	0	6	0	120	3.0016340179136	1	0	0
247	0	12	148	1	5	0	120	2.35010543407407	1	0	0
248	1	80	39	0	4	0	122	2.3779826950049	1	0	0
249	0	150	80	0	2	0	122	2.7125750760315	0	0	0
250	0	74	137	0	6	0	120	1.44250829599332	1	0	0
251	1	39	14	1	5	0	122	2.23497491597664	1	0	0
252	1	64	88	1	3	0	120	0.774823326035403	0	0	0
253	0	26	5	0	7	0	120	1.43489698006306	1	0	0
254	1	78	92	0	6	0	122	0.820408002007753	1	0	0
255	1	136	52	1	4	0	122	2.06646352796815	1	0	0
256	1	146	35	1	3	0	120	1.05271068797447	0	0	0
257	1	34	17	1	6	0	122	1.31192036590073	1	0	0
258	0	1	101	0	5	0	122	1.2899045899976	0	0	0
259	0	119	43	1	9	0	120	1.00789221993182	1	0	0
260	0	59	11	1	8	0	120	1.80273642390966	1	0	0
261	1	142	88	1	7	0	122	0.920414639054798	1	0	0
262	0	72	69	0	6	0	122	2.8195125189377	0	0	0
263	1	52	35	0	9	0	122	2.5281468059402	1	0	0
264	0	68	44	1	8	0	120	0.248541287961416	1	0	0
265	0	142	55	1	7	0	122	3.32301286596339	0	0	0
266	0	26	104	1	10	0	120	0.533917682943866	1	0	0
267	1	99	112	0	9	0	122	1.2697507510893	1	0	0
268	1	21	47	0	8	0	122	3.87921902991366	1	0	0
269	1	67	133	1	7	0	122	1.07475455407985	1	0	0
270	0	38	106	1	6	0	122	1.11900020996109	0	0	0
271	0	38	80	1	9	0	120	1.47053433500696	1	0	0
272	1	6	94	0	8	0	122	1.34761931805406	1	0	0
273	0	80	115	0	7	0	122	0.917658080928959	0	0	0
274	0	57	42	0	9	0	120	0.580645459005609	1	0	0
275	0	81	125	0	8	0	120	0.793913922971115	1	0	0
276	1	139	134	0	8	0	122	1.63244191394188	1	0	0
277	1	49	144	0	7	0	122	1.6438821000047	1	0	0
278	0	108	128	1	6	0	122	2.24021799792536	0	0	0
279	0	132	23	1	8	0	120	2.25319992809091	1	0	0
280	0	81	37	0	8	0	122	1.18442781199701	0	0	0
281	0	144	142	1	10	0	120	1.62728246708866	1	0	0
282	1	77	54	0	9	0	122	1.48697298706975	1	0	0
283	0	63	69	0	8	0	122	1.35576165304519	0	0	0
284	1	110	55	0	11	0	120	1.28958188602701	0	0	0
285	0	88	9	1	14	0	122	0.931863573030569	0	0	0
286	1	112	101	1	16	0	120	2.14018987596501	0	0	0
287	1	12	111	0	19	0	122	0.34771705896128	1	0	0
288	0	73	97	1	18	0	120	1.44984122097958	1	0	0
289	1	150	32	0	17	0	122	1.69237567007076	1	0	0
290	1	45	70	0	16	0	120	5.40786874899641	0	0	0
291	1	34	143	1	19	0	120	1.01214994292241	0	0	0
292	0	31	143	1	21	0	120	1.36771730007604	1	0	0
293	1	131	22	0	20	0	122	2.07600669795647	1	0	0
294	1	135	58	1	20	0	120	1.15741417498793	0	0	0
295	1	41	20	0	22	0	120	0.623602674924769	0	0	0
296	0	55	113	1	25	0	120	0.337906086002477	1	0	0
297	1	143	62	0	24	0	122	0.840512891998515	1	0	0
298	1	17	53	1	23	0	120	2.69188691105228	0	0	0
299	0	1	13	1	25	0	120	0.814240450039506	1	0	0
300	0	42	109	0	25	0	120	1.86671419499908	1	0	0
