Trial	Gender_Face1	Face1_nb	Face2_nb	Right_left_flip	Nb_Bubbles	Overlap_Target	Response	RT	Accuracy	Simi2Target	Trial_Reward
1	0	142	39	0	40	0	122	2.3918802831322	1	0	0
2	0	2	135	0	37	0	122	3.58085070410743	1	0	0
3	1	78	143	1	35	0	120	3.17404618603177	1	0	0
4	1	115	106	0	32	0	122	4.06920267292298	0	0	0
5	0	40	63	0	40	0	122	3.88700513588265	1	0	0
6	1	5	129	0	38	0	120	2.76131856185384	1	0	0
7	0	40	76	1	36	0	122	1.05511475191452	1	0	0
8	0	23	68	0	33	0	122	0.954155747080222	1	0	0
9	0	103	101	1	31	0	122	1.08180484594777	1	0	0
10	1	50	24	0	29	0	120	1.44401988992468	1	0	0
11	1	33	11	1	27	0	120	1.99906638101675	1	0	0
12	0	42	101	0	24	0	122	0.780438175890595	1	0	0
13	1	87	18	1	22	0	120	0.831237050937489	1	0	0
14	0	132	50	1	20	0	122	2.19048697617836	1	0	0
15	1	108	16	1	18	0	120	1.38750340696424	1	0	0
16	1	24	76	0	16	0	122	0.898607992799953	0	0	0
17	1	30	47	1	22	0	122	1.01838757214136	0	0	0
18	1	94	13	1	28	0	122	0.752057106001303	0	0	0
19	0	57	90	1	34	0	122	0.662399722961709	1	0	0
20	1	117	3	1	33	0	122	1.57690804614685	0	0	0
21	0	111	100	1	38	0	122	0.845318215899169	1	0	0
22	0	95	99	0	37	0	122	0.618478904943913	1	0	0
23	0	41	88	1	35	0	122	0.630344666074961	1	0	0
24	0	73	18	1	33	0	122	0.858985045924783	1	0	0
25	1	82	23	0	31	0	120	2.26176072587259	1	0	0
26	0	18	36	1	30	0	120	1.04794445098378	0	0	0
27	1	116	72	0	35	0	120	0.930952748982236	1	0	0
28	1	84	44	1	33	0	120	0.787557650124654	1	0	0
29	1	34	84	0	31	0	122	0.71325011504814	0	0	0
30	1	85	29	1	36	0	120	0.641805937048048	1	0	0
31	1	56	127	1	35	0	122	0.749450240982696	0	0	0
32	0	29	81	1	40	0	122	1.5090962969698	1	0	0
33	1	148	102	0	38	0	122	0.67715741484426	0	0	0
34	1	129	100	0	43	0	120	1.13612069585361	1	0	0
35	1	35	67	1	41	0	122	0.711429238086566	0	0	0
36	0	88	137	0	46	0	122	0.66423876513727	1	0	0
37	1	41	110	1	44	0	122	0.771172665990889	0	0	0
38	1	108	9	1	49	0	120	0.728858683025464	1	0	0
39	0	12	87	0	47	0	122	0.641373514896259	1	0	0
40	1	101	73	0	46	0	120	1.94816889287904	1	0	0
41	0	112	24	0	44	0	122	0.875478263013065	1	0	0
42	1	75	14	0	43	0	120	0.677819306030869	1	0	0
43	0	27	16	1	42	0	122	1.05540600395761	1	0	0
44	0	142	106	1	40	0	122	1.72238151985221	1	0	0
45	0	140	83	1	39	0	122	0.811044489964843	1	0	0
46	0	36	8	0	38	0	122	0.575850003864616	1	0	0
47	0	88	71	0	37	0	122	0.734218458877876	1	0	0
48	1	125	109	0	35	0	122	0.708303609862924	0	0	0
49	1	87	30	1	39	0	122	0.886460694018751	0	0	0
50	0	52	72	0	43	0	122	0.65749082993716	1	0	0
51	1	137	106	0	42	0	120	0.602014763047919	1	0	0
52	1	84	37	1	40	0	120	0.631152896909043	1	0	0
53	0	55	2	1	39	0	122	0.858144515892491	1	0	0
54	0	147	78	1	38	0	122	1.05282312887721	1	0	0
55	1	95	115	1	37	0	120	0.807657427154481	1	0	0
56	1	109	133	1	36	0	120	0.756849579978734	1	0	0
57	0	4	138	1	34	0	122	1.08362123998813	1	0	0
58	1	97	18	1	33	0	122	1.14917332399637	0	0	0
59	0	53	133	1	37	0	122	0.899400800000876	1	0	0
60	1	1	120	1	36	0	120	0.813362431945279	1	0	0
61	1	15	50	0	35	0	122	0.79401513398625	0	0	0
62	0	26	120	0	38	0	122	0.623053249903023	1	0	0
63	1	9	6	0	37	0	122	0.811899176100269	0	0	0
64	1	56	55	0	40	0	122	2.05648590694182	0	0	0
65	0	126	132	1	43	0	122	0.587111048866063	1	0	0
66	1	134	19	0	42	0	120	0.679837587988004	1	0	0
67	1	8	37	1	41	0	122	0.754384421976283	0	0	0
68	0	35	143	0	44	0	122	0.72887045214884	1	0	0
69	1	133	141	1	43	0	120	0.744965616846457	1	0	0
70	1	144	93	0	42	0	120	0.816800453932956	1	0	0
71	1	57	36	1	41	0	120	0.589009814197198	1	0	0
72	1	11	8	0	40	0	120	0.498655318981037	1	0	0
73	0	85	39	1	39	0	122	0.636126199970022	1	0	0
74	1	137	55	0	38	0	120	1.01499313511886	1	0	0
75	0	70	31	1	37	0	122	1.17165241693147	1	0	0
76	0	129	16	1	36	0	122	0.611065538832918	1	0	0
77	0	30	108	1	35	0	122	1.2634231550619	1	0	0
78	0	13	122	0	34	0	120	1.57850553817116	0	0	0
79	0	36	89	1	37	0	122	0.704329129075631	1	0	0
80	0	123	86	1	36	0	120	0.768763097934425	0	0	0
81	0	81	147	0	39	0	122	0.711115022888407	1	0	0
82	0	103	52	0	38	0	120	0.743215607944876	0	0	0
83	1	101	30	1	41	0	122	1.10259758401662	0	0	0
84	0	15	60	0	43	0	122	1.60843205498531	1	0	0
85	1	33	28	0	42	0	120	0.789254294941202	1	0	0
86	1	48	105	1	41	0	122	0.875063666142523	0	0	0
87	0	53	61	1	44	0	120	0.916689530946314	0	0	0
88	0	147	96	0	47	0	120	1.41317509510554	0	0	0
89	1	2	114	0	50	0	120	0.570015851873904	1	0	0
90	0	1	60	1	49	0	120	0.736038252012804	0	0	0
91	0	95	79	0	51	0	122	0.615569612011313	1	0	0
92	1	7	146	1	50	0	120	0.739880977198482	1	0	0
93	1	41	127	1	49	0	122	0.990763074951246	0	0	0
94	0	90	23	0	52	0	122	0.864432506961748	1	0	0
95	1	81	65	1	51	0	120	0.691315963864326	1	0	0
96	1	45	118	0	50	0	120	0.685000478057191	1	0	0
97	1	150	23	0	50	0	120	0.790996355935931	1	0	0
98	0	109	118	0	49	0	122	0.723868711851537	1	0	0
99	1	29	33	1	48	0	122	0.868549121078104	0	0	0
100	0	126	49	1	50	0	122	0.630837592994794	1	0	0
101	1	61	101	1	49	0	122	1.14428678783588	0	0	0
102	0	33	71	0	57	0	122	0.760818158043548	1	0	0
103	1	145	6	0	54	0	120	0.569622962968424	1	0	0
104	0	89	96	1	52	0	122	0.594105895841494	1	0	0
105	1	31	104	1	50	0	120	0.535025418037549	1	0	0
106	0	44	39	0	48	0	122	0.630497828125954	1	0	0
107	0	60	107	1	45	0	122	0.562227172078565	1	0	0
108	0	70	17	1	43	0	122	0.601038732100278	1	0	0
109	1	43	115	1	41	0	120	0.573522372171283	1	0	0
110	1	149	143	1	39	0	122	0.586507235188037	0	0	0
111	0	134	54	1	45	0	122	0.52122337417677	1	0	0
112	0	60	125	1	43	0	122	0.537765915971249	1	0	0
113	0	20	53	0	41	0	122	0.577235582051799	1	0	0
114	1	46	125	0	39	0	122	0.58273126417771	0	0	0
115	0	67	66	0	45	0	122	0.532701253192499	1	0	0
116	1	90	135	1	43	0	120	0.580467800842598	1	0	0
117	1	78	139	0	41	0	120	0.59433915396221	1	0	0
118	0	148	75	1	39	0	122	0.575717589817941	1	0	0
119	1	86	148	0	37	0	120	0.518439436098561	1	0	0
120	1	7	57	0	36	0	120	0.589809224940836	1	0	0
121	1	106	94	1	34	0	120	0.619615440024063	1	0	0
122	0	21	112	0	32	0	122	0.850887313950807	1	0	0
123	0	39	144	1	30	0	120	0.522626420017332	0	0	0
124	1	141	8	0	36	0	122	1.22637832607143	0	0	0
125	1	3	149	1	41	0	122	1.01418148190714	0	0	0
126	0	79	68	1	46	0	122	0.586176787968725	1	0	0
127	1	144	1	1	45	0	120	0.768575620139018	1	0	0
128	1	65	63	0	43	0	120	0.542611425975338	1	0	0
129	1	72	62	1	41	0	120	1.36615180689842	1	0	0
130	0	59	57	1	40	0	122	0.771991963032633	1	0	0
131	1	102	83	1	38	0	120	0.914182307897136	1	0	0
132	0	102	103	1	37	0	122	0.825729578966275	1	0	0
133	1	87	31	1	35	0	122	1.63794676307589	0	0	0
134	0	76	5	1	40	0	122	1.28960896795616	1	0	0
135	1	113	124	1	38	0	120	0.619150820188224	1	0	0
136	1	43	62	1	37	0	120	0.759070290019736	1	0	0
137	1	71	9	0	35	0	120	0.701180433854461	1	0	0
138	0	145	30	1	34	0	122	0.909770081052557	1	0	0
139	0	68	8	0	33	0	122	0.726748588960618	1	0	0
140	0	46	1	0	31	0	122	0.871019575046375	1	0	0
141	1	118	83	1	30	0	120	0.697287207935005	1	0	0
142	1	83	114	1	29	0	120	0.851415738929063	1	0	0
143	0	138	8	0	27	0	122	0.549832451157272	1	0	0
144	0	62	142	0	26	0	122	0.741284149000421	1	0	0
145	0	120	104	1	25	0	120	0.676028755959123	0	0	0
146	0	33	22	0	29	0	122	0.470621036132798	1	0	0
147	1	111	70	1	27	0	122	0.63245426886715	0	0	0
148	0	41	100	1	31	0	122	0.915761374868453	1	0	0
149	1	34	14	1	30	0	122	0.657136570196599	0	0	0
150	0	66	58	0	34	0	122	0.599437775090337	1	0	0
151	1	125	1	1	32	0	120	0.612767722923309	1	0	0
152	0	70	19	0	31	0	122	0.841298643965274	1	0	0
153	1	53	42	0	30	0	122	0.972782817902043	0	0	0
154	0	7	123	1	34	0	122	0.730754627846181	1	0	0
155	1	50	86	0	32	0	120	1.02656061109155	1	0	0
156	1	78	48	0	31	0	120	0.902700354810804	1	0	0
157	0	74	42	0	30	0	122	0.622967241099104	1	0	0
158	0	121	62	0	29	0	122	0.547686530975625	1	0	0
159	1	14	128	0	28	0	122	0.618180945049971	0	0	0
160	1	94	136	0	31	0	122	0.582665506983176	0	0	0
161	1	43	8	0	34	0	122	0.932858210988343	0	0	0
162	0	70	146	0	38	0	122	0.732251313049346	1	0	0
163	1	11	80	1	37	0	120	0.980128654045984	1	0	0
164	1	76	25	0	35	0	122	0.74523257301189	0	0	0
165	1	146	10	0	39	0	122	0.745259777177125	0	0	0
166	1	142	102	0	42	0	120	0.832867854041979	1	0	0
167	1	11	94	1	41	0	120	1.99619253794663	1	0	0
168	1	19	124	0	40	0	120	0.537276071030647	1	0	0
169	0	66	44	0	39	0	122	0.90549375792034	1	0	0
170	1	101	74	1	38	0	120	0.586061237147078	1	0	0
171	0	89	32	1	37	0	122	0.512119660852477	1	0	0
172	0	44	78	0	36	0	122	0.56048349593766	1	0	0
173	1	6	109	0	35	0	120	0.478825868107378	1	0	0
174	1	70	70	0	34	0	120	0.905850989976898	1	0	0
175	0	102	127	0	33	0	122	0.994465599069372	1	0	0
176	1	99	11	0	32	0	120	0.607963806018233	1	0	0
177	1	70	94	0	31	0	122	0.548167994013056	0	0	0
178	0	19	117	1	34	0	122	0.619330187095329	1	0	0
179	0	99	116	1	33	0	122	0.631832828978077	1	0	0
180	0	134	71	0	32	0	122	0.49917737301439	1	0	0
181	0	41	47	1	31	0	122	0.532895046984777	1	0	0
182	0	38	104	1	30	0	122	0.555566353956237	1	0	0
183	0	93	131	1	29	0	122	1.03556365612894	1	0	0
184	1	4	137	0	28	0	122	0.718235007952899	0	0	0
185	0	111	83	0	31	0	122	0.551489533856511	1	0	0
186	0	52	75	0	30	0	122	0.750075694872066	1	0	0
187	1	89	46	0	29	0	120	0.788492844905704	1	0	0
188	0	118	8	1	28	0	122	0.659199283923954	1	0	0
189	0	86	113	0	27	0	122	0.662537325872108	1	0	0
190	1	110	22	1	27	0	122	0.937248811824247	0	0	0
191	0	89	41	0	29	0	122	0.695882612140849	1	0	0
192	1	24	75	1	28	0	122	0.521191457984969	0	0	0
193	0	140	89	0	31	0	122	0.625432095024735	1	0	0
194	0	19	83	1	30	0	122	0.605240572942421	1	0	0
195	0	85	31	0	29	0	122	0.521570863202214	1	0	0
196	1	126	31	1	28	0	120	1.89066136488691	1	0	0
197	0	77	20	0	27	0	120	0.995681251166388	0	0	0
198	0	97	56	0	30	0	122	0.697939111851156	1	0	0
199	1	72	69	1	29	0	122	1.80351592716761	0	0	0
200	1	43	25	0	31	0	122	0.56745086889714	0	0	0
201	0	112	105	1	34	0	122	0.962535487953573	1	0	0
202	0	121	115	0	31	0	122	1.14502649009228	1	0	0
203	1	1	14	0	29	0	120	0.73930344497785	1	0	0
204	0	17	144	0	26	0	122	0.668417703127488	1	0	0
205	1	81	1	1	24	0	120	0.679214275907725	1	0	0
206	0	148	62	0	21	0	122	0.768983358051628	1	0	0
207	1	24	144	0	19	0	122	1.39849272603169	0	0	0
208	1	13	6	0	26	0	120	1.04480806109495	1	0	0
209	0	29	28	1	24	0	122	0.68831331608817	1	0	0
210	1	16	14	0	22	0	122	0.737561484798789	0	0	0
211	1	20	41	1	29	0	120	0.537578854942694	1	0	0
212	1	83	27	1	27	0	122	0.608978062868118	0	0	0
213	1	112	37	1	33	0	120	0.997847172897309	1	0	0
214	1	145	72	1	31	0	122	0.738548225956038	0	0	0
215	1	86	116	1	37	0	120	0.730474451091141	1	0	0
216	0	108	45	0	36	0	122	0.674477393040434	1	0	0
217	0	64	7	1	34	0	122	0.589172651991248	1	0	0
218	1	35	26	1	32	0	122	0.61072118091397	0	0	0
219	1	140	57	0	38	0	122	0.782960751093924	0	0	0
220	0	92	1	0	43	0	122	0.620152245042846	1	0	0
221	1	56	150	1	41	0	122	0.825014224974439	0	0	0
222	0	63	103	1	47	0	120	0.724752501118928	0	0	0
223	0	108	105	0	52	0	122	0.877205065917224	1	0	0
224	0	62	44	0	50	0	122	1.79128932999447	1	0	0
225	0	26	53	1	48	0	122	0.700919596012682	1	0	0
226	0	37	82	0	47	0	122	1.26976254093461	1	0	0
227	0	46	52	1	45	0	122	0.84001754806377	1	0	0
228	0	92	146	1	44	0	122	0.603741148021072	1	0	0
229	0	87	35	1	42	0	122	0.664108300115913	1	0	0
230	1	18	4	1	41	0	120	0.770962096052244	1	0	0
231	1	91	95	1	39	0	122	1.04044336010702	0	0	0
232	0	110	1	0	44	0	122	0.939979912946001	1	0	0
233	0	75	25	1	42	0	122	0.715716365957633	1	0	0
234	0	34	30	1	41	0	122	0.571641728980467	1	0	0
235	1	118	111	0	39	0	120	0.778325602179393	1	0	0
236	1	71	20	1	38	0	122	0.600678727030754	0	0	0
237	1	18	75	1	42	0	120	0.828971677925438	1	0	0
238	1	149	135	0	41	0	120	1.05668343580328	1	0	0
239	0	105	37	0	40	0	122	0.683963872026652	1	0	0
240	1	37	149	1	38	0	120	1.10211848490871	1	0	0
241	0	73	120	0	37	0	120	0.718631125986576	0	0	0
242	0	150	41	1	41	0	122	0.671259006019682	1	0	0
243	0	48	29	1	39	0	122	0.745345403905958	1	0	0
244	1	130	101	1	38	0	120	0.693119429983199	1	0	0
245	1	69	10	0	37	0	120	1.90618807193823	1	0	0
246	1	67	115	1	36	0	120	0.690521067008376	1	0	0
247	1	11	117	1	34	0	120	1.45983042684384	1	0	0
248	0	137	141	1	33	0	122	0.535257844021544	1	0	0
249	1	100	68	1	32	0	120	0.999231572030112	1	0	0
250	0	43	107	0	31	0	122	0.924743283074349	1	0	0
251	1	60	104	1	30	0	122	0.835483606904745	0	0	0
252	0	1	28	0	33	0	122	0.66380038112402	1	0	0
253	1	10	106	1	32	0	120	1.48683760385029	1	0	0
254	0	30	84	1	31	0	122	0.827492282027379	1	0	0
255	1	75	49	1	30	0	120	0.943785913987085	1	0	0
256	1	102	85	1	29	0	120	0.735160154057667	1	0	0
257	1	27	4	1	28	0	120	0.630172390956432	1	0	0
258	0	39	28	1	27	0	122	0.730464896885678	1	0	0
259	0	21	126	1	25	0	120	0.642112586181611	0	0	0
260	0	140	42	1	29	0	122	0.741528415121138	1	0	0
261	0	110	34	1	28	0	122	1.98844579490833	1	0	0
262	1	137	21	0	27	0	120	0.746008184039965	1	0	0
263	1	11	98	0	26	0	120	1.2014054809697	1	0	0
264	0	89	144	0	25	0	122	1.14302909607068	1	0	0
265	0	10	25	0	24	0	120	1.07053969497792	0	0	0
266	1	70	126	1	27	0	120	1.55982333002612	1	0	0
267	0	20	90	1	26	0	120	0.822577221086249	0	0	0
268	1	126	149	1	29	0	122	0.811283328104764	0	0	0
269	1	150	108	1	31	0	120	0.84769701003097	1	0	0
270	0	12	116	0	30	0	122	1.43468519416638	1	0	0
271	0	103	100	1	30	0	122	0.72313141496852	1	0	0
272	1	29	64	1	29	0	120	0.798793646972626	1	0	0
273	0	58	40	0	28	0	122	0.786941471975297	1	0	0
274	0	131	42	0	27	0	122	0.897542584920302	1	0	0
275	0	15	5	0	26	0	122	1.41040285001509	1	0	0
276	1	28	87	1	25	0	120	0.663718717871234	1	0	0
277	0	133	48	0	24	0	122	0.857453440083191	1	0	0
278	0	9	99	1	23	0	122	0.723776024999097	1	0	0
279	0	36	91	1	22	0	122	1.01213544700295	1	0	0
280	1	63	96	0	22	0	122	1.27307893917896	0	0	0
281	0	59	77	1	24	0	122	0.667099579935893	1	0	0
282	0	102	122	0	23	0	122	0.837722260970622	1	0	0
283	0	141	116	0	22	0	122	0.697471221908927	1	0	0
284	0	9	38	0	22	0	122	0.689274624921381	1	0	0
285	0	124	24	1	21	0	122	0.88772136089392	1	0	0
286	1	63	119	1	20	0	120	0.780415715184063	1	0	0
287	0	118	130	0	19	0	122	0.818002411862835	1	0	0
288	0	81	43	1	18	0	122	1.10252212407067	1	0	0
289	1	27	11	0	18	0	120	0.791609843960032	1	0	0
290	0	90	19	1	17	0	122	0.915872524026781	1	0	0
291	1	60	82	0	16	0	122	0.956250793067738	0	0	0
292	0	40	97	1	18	0	120	0.548027212964371	0	0	0
293	1	9	106	0	21	0	120	0.651074912864715	1	0	0
294	1	138	148	1	20	0	120	1.15818236488849	1	0	0
295	1	34	13	0	19	0	120	0.669093257049099	1	0	0
296	1	65	76	0	18	0	122	1.12765678809956	0	0	0
297	0	137	62	0	21	0	122	0.887214111862704	1	0	0
298	1	113	3	1	20	0	120	0.970058044884354	1	0	0
299	0	52	58	1	19	0	122	0.64821778703481	1	0	0
300	0	34	127	0	18	0	122	0.7555484729819	1	0	0
