Trial	Gender_Face1	Face1_nb	Face2_nb	Right_left_flip	Nb_Bubbles	Overlap_Target	Response	RT	Accuracy	Simi2Target	Trial_Reward
1	0	87	10	0	40	0	122	4.73584826599108	0	0	0
2	1	94	113	0	48	0	120	6.02002823003568	0	0	0
3	1	29	113	0	55	0	120	4.8272226669942	0	0	0
4	1	148	68	1	61	0	122	3.52919725398533	1	0	0
5	0	37	126	0	59	0	120	2.16984234598931	1	0	0
6	1	100	114	1	57	0	122	6.28880850505084	1	0	0
7	0	137	104	0	55	0	120	1.33874288701918	1	0	0
8	1	47	61	1	53	0	122	0.787378243985586	1	0	0
9	1	58	20	1	52	0	122	11.0653869050439	1	0	0
10	0	137	136	1	50	0	120	1.6198353189975	1	0	0
11	0	71	3	0	48	0	122	2.36098544596462	0	0	0
12	1	30	107	1	53	0	122	1.90360652701929	1	0	0
13	0	91	125	1	52	0	120	0.985463524004444	1	0	0
14	0	77	119	0	50	0	120	1.59632390597835	1	0	0
15	0	75	44	0	48	0	120	0.885419752041344	1	0	0
16	0	127	54	1	46	0	120	3.5331025350024	1	0	0
17	1	3	94	1	44	0	122	1.70419071201468	1	0	0
18	1	115	49	0	43	0	122	3.26287635002518	1	0	0
19	1	142	56	0	41	0	120	8.19745220802724	0	0	0
20	1	3	114	1	46	0	122	4.16242637397954	1	0	0
21	1	37	57	0	44	0	120	7.79299081704812	0	0	0
22	1	83	63	1	49	0	122	2.81423664302565	1	0	0
23	0	17	127	0	48	0	120	2.04355749796377	1	0	0
24	0	123	70	0	46	0	120	11.2470533300075	1	0	0
25	1	53	105	0	45	0	122	5.1144879469648	1	0	0
26	0	104	109	0	43	0	122	16.5148779779556	0	0	0
27	0	142	21	1	48	0	120	4.64253295899834	1	0	0
28	1	132	23	1	46	0	122	11.7577419399749	1	0	0
29	1	65	18	1	45	0	122	3.67314978200011	1	0	0
30	0	84	145	0	44	0	120	1.3425615549786	1	0	0
31	1	92	76	1	42	0	122	0.862826781987678	1	0	0
32	1	79	5	1	41	0	122	2.19419181597186	1	0	0
33	1	107	42	0	39	0	122	2.1283470360213	1	0	0
34	0	130	130	1	38	0	120	4.81693186197663	1	0	0
35	1	133	36	1	37	0	120	3.43504759302596	0	0	0
36	0	56	23	0	41	0	122	2.00987052702112	0	0	0
37	0	149	113	1	45	0	120	1.03900248202262	1	0	0
38	0	54	94	1	43	0	120	3.11534775100881	1	0	0
39	0	57	62	1	42	0	120	2.74072679399978	1	0	0
40	1	131	49	0	41	0	122	1.48413080896717	1	0	0
41	0	39	22	0	39	0	122	3.17241258802824	0	0	0
42	0	72	56	0	43	0	120	1.05381851299899	1	0	0
43	1	34	132	1	42	0	120	1.46196471399162	0	0	0
44	0	93	36	1	46	0	120	5.22071260103257	1	0	0
45	1	97	85	1	44	0	122	3.79282073798822	1	0	0
46	0	112	28	0	43	0	120	1.67070327699184	1	0	0
47	1	77	43	1	42	0	122	2.24244181299582	1	0	0
48	0	19	114	0	41	0	120	1.86179215100128	1	0	0
49	1	6	89	1	40	0	122	2.00175153999589	1	0	0
50	1	64	52	1	38	0	120	1.23845157003962	0	0	0
51	0	148	134	0	42	0	120	3.70747763902182	1	0	0
52	0	67	109	0	41	0	120	2.84449774405221	1	0	0
53	0	141	36	0	40	0	120	0.83264263899764	1	0	0
54	1	110	22	1	39	0	122	1.4022807739675	1	0	0
55	1	59	57	1	38	0	122	9.57832456403412	1	0	0
56	0	104	35	0	36	0	120	7.16040604404407	1	0	0
57	1	110	64	1	35	0	122	4.6145263799699	1	0	0
58	1	149	23	1	34	0	120	1.00348007696448	0	0	0
59	0	139	39	0	37	0	122	1.3393034460023	0	0	0
60	1	114	124	1	41	0	120	5.84999808802968	0	0	0
61	1	27	81	0	44	0	120	4.0123457860318	0	0	0
62	0	135	9	0	47	0	122	4.30523219698807	0	0	0
63	1	61	142	1	50	0	120	11.4030136920046	0	0	0
64	0	97	146	1	53	0	120	2.3591504470096	1	0	0
65	1	20	25	0	52	0	122	2.11860970698763	1	0	0
66	0	52	126	1	51	0	122	3.62384881800972	0	0	0
67	1	120	100	1	54	0	120	1.02018295798916	0	0	0
68	0	25	2	1	57	0	120	1.58939810300944	1	0	0
69	1	112	120	1	56	0	122	6.06323167798109	1	0	0
70	1	126	96	1	55	0	122	7.41037931799656	1	0	0
71	0	3	8	1	54	0	120	0.958899956953246	1	0	0
72	1	101	131	1	53	0	122	1.96339416602859	1	0	0
73	0	51	83	1	52	0	120	0.693785968993325	1	0	0
74	0	5	86	0	51	0	120	2.54411241295747	1	0	0
75	0	74	144	1	50	0	120	0.983712050016038	1	0	0
76	0	94	24	1	49	0	120	1.41926744498778	1	0	0
77	0	104	123	0	49	0	120	1.61142270901473	1	0	0
78	0	139	121	1	48	0	120	1.00861579203047	1	0	0
79	1	9	73	1	47	0	122	4.1018432819983	1	0	0
80	0	85	146	1	46	0	120	0.959662356006447	1	0	0
81	1	135	95	0	45	0	122	1.18010956404032	1	0	0
82	0	51	48	1	44	0	120	2.82078464998631	1	0	0
83	1	52	98	1	43	0	122	7.57864497700939	1	0	0
84	1	140	31	0	42	0	122	1.30401256500045	1	0	0
85	1	44	107	0	42	0	120	1.25035311497049	0	0	0
86	1	23	109	0	44	0	120	3.44632248301059	0	0	0
87	1	141	30	0	47	0	122	2.54634233994875	1	0	0
88	1	57	54	1	46	0	120	1.46588738000719	0	0	0
89	0	30	126	0	48	0	120	1.66175586602185	1	0	0
90	0	16	17	1	47	0	120	0.91312022699276	1	0	0
91	1	62	119	0	47	0	122	2.13498466199962	1	0	0
92	0	48	124	0	46	0	120	1.09904195502168	1	0	0
93	0	142	129	0	45	0	120	2.48244462104049	1	0	0
94	0	105	54	0	44	0	122	4.46307911997428	0	0	0
95	1	39	110	1	47	0	120	1.19429500499973	0	0	0
96	0	65	62	1	49	0	120	4.83251343900338	1	0	0
97	1	94	86	0	48	0	122	1.3248447549995	1	0	0
98	1	35	74	0	47	0	120	0.869404161989223	0	0	0
99	0	129	141	0	50	0	120	1.24850000801962	1	0	0
100	1	35	91	1	49	0	120	1.07674535899423	0	0	0
101	1	31	117	1	50	0	122	1.38912752794567	1	0	0
102	0	57	91	0	47	0	120	2.13190174498595	1	0	0
103	1	146	91	1	45	0	122	1.56749136699364	1	0	0
104	1	12	125	1	42	0	122	1.61684565199539	1	0	0
105	1	82	60	0	40	0	120	2.70969860599143	0	0	0
106	0	25	66	1	47	0	120	0.78308774298057	1	0	0
107	1	140	103	0	45	0	122	0.758236482040957	1	0	0
108	1	36	67	1	43	0	122	2.31817949697142	1	0	0
109	1	132	3	0	41	0	122	1.31098226900212	1	0	0
110	0	134	148	1	38	0	120	0.888323602033779	1	0	0
111	1	120	85	0	36	0	120	3.35546242899727	0	0	0
112	1	122	117	1	43	0	122	0.73080730997026	1	0	0
113	1	7	69	0	41	0	122	1.34710095502669	1	0	0
114	0	139	32	1	39	0	120	0.859689288015943	1	0	0
115	1	23	11	1	37	0	120	4.77974159596488	0	0	0
116	1	95	107	1	43	0	120	6.10101625899551	0	0	0
117	1	98	134	1	49	0	122	1.70269740000367	1	0	0
118	1	60	100	1	47	0	120	2.45576691703172	0	0	0
119	1	41	14	1	53	0	120	1.93193780997535	0	0	0
120	0	84	109	1	59	0	120	1.05204982304713	1	0	0
121	0	105	61	0	57	0	120	4.50081180798588	1	0	0
122	0	71	74	1	55	0	120	1.80167501600226	1	0	0
123	0	40	40	0	54	0	120	1.27109589497559	1	0	0
124	0	126	86	0	52	0	120	0.907209369994234	1	0	0
125	1	37	148	0	50	0	120	1.33277519897092	0	0	0
126	0	131	106	1	55	0	120	0.709105495014228	1	0	0
127	1	64	89	1	54	0	122	1.10276104597142	1	0	0
128	1	148	123	0	52	0	120	0.712589463975746	0	0	0
129	1	143	62	1	57	0	120	1.49024653399829	0	0	0
130	0	86	127	1	61	0	120	0.892731423024088	1	0	0
131	0	69	137	1	60	0	120	0.822541135014035	1	0	0
132	0	146	53	1	58	0	120	1.00066408602288	1	0	0
133	1	102	137	1	57	0	122	3.2739554400323	1	0	0
134	0	76	120	0	55	0	120	2.40414247597801	1	0	0
135	1	27	86	1	54	0	122	1.61831677600276	1	0	0
136	0	75	121	0	53	0	120	0.847720931982622	1	0	0
137	1	149	123	0	51	0	120	4.7398884879658	0	0	0
138	1	24	48	1	55	0	122	1.45147897198331	1	0	0
139	0	131	134	1	54	0	120	0.735364232037682	1	0	0
140	1	50	90	1	53	0	120	1.00016987195704	0	0	0
141	0	149	63	1	56	0	120	1.25903916399693	1	0	0
142	0	150	121	1	55	0	122	4.09778943198035	0	0	0
143	0	149	105	1	59	0	120	1.09919287398225	1	0	0
144	1	8	146	1	58	0	120	5.79724652104778	0	0	0
145	0	62	11	1	62	0	120	0.85623344295891	1	0	0
146	1	32	74	1	60	0	120	2.25910946598742	0	0	0
147	1	68	6	1	64	0	122	1.32184532401152	1	0	0
148	0	65	70	0	63	0	120	2.39537689700956	1	0	0
149	0	33	71	1	62	0	120	1.5899689749931	1	0	0
150	0	89	5	0	61	0	120	3.00730440201005	1	0	0
151	1	85	118	1	59	0	122	1.75602917099604	1	0	0
152	0	60	2	1	58	0	120	0.95621273299912	1	0	0
153	0	128	62	0	57	0	120	1.07243645994458	1	0	0
154	1	31	32	0	56	0	122	1.3909417919931	1	0	0
155	1	9	90	1	55	0	122	12.8609462850145	1	0	0
156	0	69	23	0	54	0	120	1.15087633300573	1	0	0
157	1	124	30	0	52	0	122	1.31070825201459	1	0	0
158	0	94	93	1	51	0	120	2.16012462397339	1	0	0
159	0	123	115	0	50	0	120	2.03909303399269	1	0	0
160	0	79	61	1	49	0	120	0.947525024996139	1	0	0
161	0	142	83	1	48	0	120	1.14517452998552	1	0	0
162	1	48	6	1	47	0	120	9.57138401101111	0	0	0
163	1	74	73	0	50	0	122	1.01757202297449	1	0	0
164	1	79	53	0	49	0	122	0.930631549970713	1	0	0
165	0	137	106	0	48	0	120	0.747527115046978	1	0	0
166	1	105	149	0	47	0	122	0.804209364985581	1	0	0
167	1	125	61	0	46	0	120	3.68057908501942	0	0	0
168	1	88	80	1	49	0	122	0.73535387503216	1	0	0
169	1	23	40	0	48	0	120	2.02445573901059	0	0	0
170	0	56	15	1	51	0	120	1.35673094604863	1	0	0
171	0	139	93	0	50	0	120	0.825851525994949	1	0	0
172	1	30	47	1	49	0	120	1.16203399701044	0	0	0
173	0	68	24	1	52	0	120	0.77771631302312	1	0	0
174	0	108	88	1	51	0	120	3.03192630899139	1	0	0
175	1	5	98	1	50	0	122	0.804613790009171	1	0	0
176	0	145	3	0	49	0	120	0.846920812036842	1	0	0
177	0	32	147	0	48	0	120	0.709723000996746	1	0	0
178	1	143	84	1	48	0	122	0.935996472020634	1	0	0
179	1	54	39	1	47	0	122	1.09595665097004	1	0	0
180	1	103	144	1	46	0	122	0.885405940993223	1	0	0
181	0	2	22	0	45	0	120	0.764784752973355	1	0	0
182	0	30	20	0	44	0	120	1.2043233650038	1	0	0
183	0	4	140	1	43	0	120	1.1860236810171	1	0	0
184	1	149	25	0	42	0	122	1.13651169196237	1	0	0
185	0	123	41	0	42	0	120	13.0254081559833	1	0	0
186	0	75	41	1	41	0	120	0.924171342048794	1	0	0
187	1	70	97	0	40	0	122	1.69739858800313	1	0	0
188	0	96	53	1	39	0	120	1.13503320800373	1	0	0
189	0	101	106	0	39	0	120	0.751470590010285	1	0	0
190	1	114	40	1	38	0	120	2.95673079695553	0	0	0
191	1	139	140	1	40	0	122	1.69528436200926	1	0	0
192	0	137	83	0	39	0	120	0.721475988975726	1	0	0
193	1	41	108	1	39	0	120	1.54608812899096	0	0	0
194	1	88	101	1	41	0	122	0.914228434034158	1	0	0
195	0	67	97	0	40	0	120	1.81911044899607	1	0	0
196	0	43	131	1	39	0	120	2.04009483696427	1	0	0
197	1	36	51	0	39	0	122	0.764419867016841	1	0	0
198	1	88	40	1	38	0	120	2.98005350097083	0	0	0
199	1	33	34	1	40	0	120	5.05006825597957	0	0	0
200	1	49	7	1	42	0	122	1.10172297904501	1	0	0
201	1	87	38	0	42	0	122	1.32049560500309	1	0	0
202	0	118	125	1	39	0	120	1.39429242099868	1	0	0
203	1	105	120	1	37	0	122	2.98677390697412	1	0	0
204	1	95	11	0	34	0	120	4.70692079205764	0	0	0
205	1	4	82	1	42	0	122	0.77991599298548	1	0	0
206	1	129	110	0	40	0	120	2.69923235598253	0	0	0
207	0	51	88	1	47	0	120	0.869424029951915	1	0	0
208	1	70	19	0	45	0	120	3.66461321501993	0	0	0
209	0	135	106	0	52	0	120	2.19560459797503	1	0	0
210	0	109	73	0	50	0	120	0.993430411035661	1	0	0
211	1	98	14	1	48	0	122	0.764675837999675	1	0	0
212	1	118	16	1	46	0	120	1.45548349799355	0	0	0
213	0	51	28	0	52	0	120	0.754778606002219	1	0	0
214	0	105	73	0	50	0	120	2.05895522999344	1	0	0
215	1	105	146	1	48	0	122	1.11802404699847	1	0	0
216	1	110	128	0	46	0	122	1.27161074103788	1	0	0
217	0	92	82	1	45	0	120	0.850590321992058	1	0	0
218	1	72	105	1	43	0	120	2.69090750796022	0	0	0
219	0	23	141	1	48	0	120	1.73582383699249	1	0	0
220	1	133	19	0	46	0	120	0.792315689963289	0	0	0
221	0	31	19	1	52	0	120	3.6629293129663	1	0	0
222	0	135	75	0	50	0	120	2.59138563799206	1	0	0
223	1	144	110	1	48	0	120	4.42360619996907	0	0	0
224	1	27	65	1	53	0	122	0.875722945027519	1	0	0
225	0	126	138	0	52	0	120	0.844203646993265	1	0	0
226	1	17	46	0	50	0	122	1.81932494498324	1	0	0
227	1	3	94	0	49	0	122	2.24730321601965	1	0	0
228	0	103	72	1	47	0	122	1.07572744303616	0	0	0
229	0	20	37	0	52	0	122	1.37436262203846	0	0	0
230	0	79	19	0	56	0	120	0.861297178955283	1	0	0
231	0	72	95	1	55	0	120	2.8138186269789	1	0	0
232	1	122	79	0	53	0	122	5.48550755798351	1	0	0
233	1	97	59	1	52	0	122	1.14350919495337	1	0	0
234	0	79	47	1	51	0	120	0.767813627957366	1	0	0
235	1	21	70	1	49	0	122	2.103225407016	1	0	0
236	0	28	92	0	48	0	120	0.912292168010026	1	0	0
237	0	137	64	1	46	0	120	0.756485448975582	1	0	0
238	0	46	29	0	45	0	120	1.26574873900972	1	0	0
239	0	40	100	0	44	0	120	1.11736376601039	1	0	0
240	1	74	60	0	43	0	120	6.24624932795996	0	0	0
241	1	44	126	1	46	0	120	0.865918303024955	0	0	0
242	0	140	71	1	50	0	120	3.8018903019838	1	0	0
243	1	137	144	0	49	0	122	1.79443438799353	1	0	0
244	0	9	82	1	48	0	120	1.11303879402112	1	0	0
245	1	31	91	1	47	0	122	2.53052412299439	1	0	0
246	1	40	98	1	45	0	120	0.763344027975108	0	0	0
247	0	50	69	1	49	0	120	2.40284062799765	1	0	0
248	1	15	132	1	48	0	120	4.19244750199141	0	0	0
249	1	101	113	1	51	0	122	3.15001970302546	1	0	0
250	0	95	121	1	50	0	120	0.981419347983319	1	0	0
251	1	13	52	1	49	0	120	0.801332378003281	0	0	0
252	0	92	122	0	53	0	120	1.00246149598388	1	0	0
253	1	50	71	1	51	0	120	0.852938793017529	0	0	0
254	0	128	52	0	55	0	120	1.01163843000541	1	0	0
255	0	5	53	1	54	0	120	1.39864177798154	1	0	0
256	0	91	42	0	53	0	120	0.798936910985503	1	0	0
257	1	71	55	1	52	0	122	2.24983983003767	1	0	0
258	0	1	25	0	50	0	120	0.881332802004181	1	0	0
259	0	68	112	0	49	0	120	0.728782674006652	1	0	0
260	0	63	39	1	48	0	120	2.06064808397787	1	0	0
261	1	24	63	1	47	0	122	1.44796603301074	1	0	0
262	1	146	20	0	46	0	120	0.740057208982762	0	0	0
263	0	134	105	0	49	0	120	0.795917993003968	1	0	0
264	0	120	63	0	48	0	120	0.806630694016349	1	0	0
265	1	143	49	0	47	0	120	1.52821774600307	0	0	0
266	0	140	84	1	50	0	120	0.941215036029462	1	0	0
267	1	137	24	1	49	0	120	7.59269537503133	0	0	0
268	1	63	131	1	52	0	122	0.766403956979048	1	0	0
269	0	62	34	0	51	0	120	0.942080600012559	1	0	0
270	1	25	42	1	50	0	122	0.845986002008431	1	0	0
271	1	39	12	1	49	0	122	1.36199125600979	1	0	0
272	1	68	108	1	48	0	122	3.10612866602605	1	0	0
273	1	112	90	0	48	0	122	5.61902363499394	1	0	0
274	1	58	86	1	47	0	122	1.30375964799896	1	0	0
275	0	115	141	1	46	0	120	1.52871080796467	1	0	0
276	0	38	39	1	45	0	120	1.77774542098632	1	0	0
277	0	18	94	0	44	0	120	0.936662841006182	1	0	0
278	0	64	41	0	43	0	120	1.84827305504587	1	0	0
279	0	114	138	1	42	0	120	2.37204669800121	1	0	0
280	1	19	29	1	41	0	122	1.45084086200222	1	0	0
281	1	103	116	1	41	0	122	1.02308385795914	1	0	0
282	0	17	111	1	40	0	120	1.05184065498179	1	0	0
283	1	58	131	0	39	0	120	1.03641549497843	0	0	0
284	1	89	29	1	41	0	120	11.1884971989784	0	0	0
285	0	80	52	0	44	0	120	1.53705717500998	1	0	0
286	0	96	20	0	43	0	120	1.32162092201179	1	0	0
287	0	46	141	1	42	0	120	0.970779355033301	1	0	0
288	1	143	2	1	41	0	122	0.854256240010727	1	0	0
289	0	73	40	0	40	0	120	2.53305913502118	1	0	0
290	0	114	122	0	40	0	122	1.33352207503049	0	0	0
291	0	119	25	0	42	0	120	2.04669249302242	1	0	0
292	0	25	134	1	41	0	122	0.978059069020674	0	0	0
293	0	113	9	0	44	0	120	1.8932441190118	1	0	0
294	1	111	124	0	43	0	120	7.82755474600708	0	0	0
295	0	120	3	1	45	0	122	7.39893592504086	0	0	0
296	1	148	143	1	48	0	122	1.23633440100821	1	0	0
297	0	133	27	1	47	0	120	1.13702254998498	1	0	0
298	1	83	9	1	46	0	122	0.865310374996625	1	0	0
299	1	12	114	0	45	0	120	1.69854954699986	0	0	0
300	1	129	75	0	48	0	122	0.951041751017328	1	0	0
