Trial	Gender_Face1	Face1_nb	Face2_nb	Right_left_flip	Nb_Bubbles	Overlap_Target	Response	RT	Accuracy	Simi2Target	Trial_Reward
1	0	57	137	1	40	0	120	1.41289430100005	1	0	0
2	1	105	75	1	37	0	120	2.02612847299315	0	0	0
3	1	76	90	1	45	0	122	1.02574249499594	1	0	0
4	0	22	3	0	43	0	120	3.41712084799656	1	0	0
5	0	2	92	0	41	0	120	0.98922123000375	1	0	0
6	0	94	103	1	39	0	120	1.26653146199533	1	0	0
7	0	30	113	1	36	0	122	1.60652642899367	0	0	0
8	0	140	66	1	43	0	120	1.91552647599019	1	0	0
9	0	78	6	1	41	0	120	2.01200859100209	1	0	0
10	1	141	114	0	39	0	122	1.01696908300801	1	0	0
11	0	20	43	0	37	0	122	1.02230112500547	0	0	0
12	0	19	33	1	43	0	120	1.14730840799166	1	0	0
13	0	127	111	0	41	0	120	1.01115813999786	1	0	0
14	1	134	47	1	39	0	122	1.52772491500946	1	0	0
15	0	87	61	0	37	0	120	2.3556105359894	1	0	0
16	0	50	42	0	35	0	120	1.51947477000067	1	0	0
17	1	66	128	1	33	0	122	1.98391843099671	1	0	0
18	0	101	123	0	31	0	120	3.00412993600185	1	0	0
19	1	117	100	0	29	0	122	3.55309604598733	1	0	0
20	0	18	142	0	28	0	120	0.995557091999217	1	0	0
21	1	124	44	0	26	0	122	0.872744000007515	1	0	0
22	1	42	7	1	24	0	120	1.41950271600217	0	0	0
23	1	133	55	0	29	0	122	1.02423494400864	1	0	0
24	1	89	89	1	28	0	122	1.55777056899387	1	0	0
25	1	42	52	0	26	0	120	1.12497460198938	0	0	0
26	1	29	46	1	31	0	120	1.82913372199982	0	0	0
27	0	37	71	0	36	0	120	1.24868617698667	1	0	0
28	1	76	69	0	34	0	122	4.19740060401091	1	0	0
29	0	68	55	0	33	0	120	0.834000853996258	1	0	0
30	1	116	93	1	31	0	122	2.98226513000554	1	0	0
31	0	77	110	1	30	0	120	1.60488661201089	1	0	0
32	1	8	102	1	28	0	122	1.11355887100217	1	0	0
33	1	51	134	1	27	0	122	2.72235592699144	1	0	0
34	1	41	34	0	25	0	120	0.835414822999155	0	0	0
35	1	97	133	0	29	0	122	1.26296278298832	1	0	0
36	0	97	63	0	28	0	120	1.61901715100976	1	0	0
37	0	128	40	1	27	0	122	3.78347538699745	0	0	0
38	1	146	8	0	31	0	122	2.06940827600192	1	0	0
39	1	13	26	1	30	0	122	1.31188448300236	1	0	0
40	1	70	100	0	28	0	120	2.19290971801092	0	0	0
41	0	92	15	0	32	0	120	2.99792223799159	1	0	0
42	0	10	17	0	31	0	120	4.64415368599293	1	0	0
43	0	44	31	0	30	0	122	1.53497137900558	0	0	0
44	0	77	55	0	34	0	120	1.15953975499724	1	0	0
45	0	104	19	1	32	0	120	3.20568109300802	1	0	0
46	1	65	127	0	31	0	122	1.89890925999498	1	0	0
47	1	134	48	0	30	0	122	2.13308667798992	1	0	0
48	0	116	17	0	28	0	120	1.15704015099618	1	0	0
49	1	21	49	0	27	0	122	0.866676152989385	1	0	0
50	1	48	79	0	26	0	120	1.60292446300446	0	0	0
51	0	71	79	1	30	0	120	2.36312769200595	1	0	0
52	1	33	92	1	28	0	120	2.71058510900184	0	0	0
53	1	113	141	1	32	0	122	1.41823465400375	1	0	0
54	1	126	127	0	31	0	120	1.07898156100418	0	0	0
55	1	55	96	1	34	0	122	1.64883888000622	1	0	0
56	1	49	83	1	33	0	120	3.18898828199599	0	0	0
57	1	113	120	1	37	0	122	1.46453684500011	1	0	0
58	0	112	18	1	36	0	120	2.51016445099958	1	0	0
59	1	129	75	0	34	0	122	1.25449602700246	1	0	0
60	0	84	63	0	33	0	120	2.43137243299861	1	0	0
61	1	140	20	1	32	0	122	0.718451251988881	1	0	0
62	0	88	76	1	31	0	120	1.1828607780044	1	0	0
63	0	139	25	0	30	0	120	1.29263069899753	1	0	0
64	0	92	12	1	29	0	122	4.53466229699552	0	0	0
65	1	79	100	0	32	0	122	0.998933038004907	1	0	0
66	1	123	52	1	31	0	122	0.692614911997225	1	0	0
67	1	2	108	1	30	0	120	0.974981143008335	0	0	0
68	1	149	128	1	33	0	120	1.48464208199584	0	0	0
69	1	62	66	0	36	0	122	0.73951649099763	1	0	0
70	0	20	99	0	35	0	122	4.31793844600907	0	0	0
71	1	94	27	0	38	0	120	1.09444605899625	0	0	0
72	0	8	65	1	41	0	120	1.04027175500232	1	0	0
73	0	55	88	1	40	0	120	1.19657816500694	1	0	0
74	1	147	69	0	39	0	120	1.40261571899464	0	0	0
75	1	118	16	0	42	0	120	2.15955393499462	0	0	0
76	1	51	123	1	45	0	122	0.718479702001787	1	0	0
77	1	51	124	0	44	0	120	2.24431066900434	0	0	0
78	1	70	115	0	47	0	122	3.56356418099313	1	0	0
79	0	110	57	1	46	0	120	0.761626770996372	1	0	0
80	1	107	8	1	45	0	122	1.44946120399982	1	0	0
81	1	144	88	0	44	0	122	3.74928179699054	1	0	0
82	1	139	18	0	43	0	120	2.90833107000799	0	0	0
83	1	49	63	0	46	0	122	0.717778385005658	1	0	0
84	0	107	84	1	45	0	122	1.07047557500482	0	0	0
85	1	107	67	1	48	0	122	0.696843432000605	1	0	0
86	1	33	125	0	47	0	120	1.34716947899142	0	0	0
87	0	117	146	0	50	0	122	1.52986267799861	0	0	0
88	1	62	90	0	53	0	122	2.68344668499776	1	0	0
89	1	124	28	1	52	0	120	4.90140062700084	0	0	0
90	1	149	112	1	55	0	120	1.29404406300455	0	0	0
91	1	38	75	1	58	0	122	0.744195264996961	1	0	0
92	0	67	53	0	57	0	120	1.3038169759966	1	0	0
93	1	84	49	0	56	0	122	0.65754434299015	1	0	0
94	1	146	18	1	55	0	120	1.57194697800151	0	0	0
95	0	76	120	1	58	0	120	1.19431762301247	1	0	0
96	1	4	54	0	57	0	122	1.41637840800104	1	0	0
97	0	83	107	1	56	0	122	3.68107737500395	0	0	0
98	0	56	106	1	59	0	120	0.806788913003402	1	0	0
99	0	84	46	0	58	0	120	0.771990411987645	1	0	0
100	1	7	121	0	57	0	122	1.76302974499413	1	0	0
101	0	12	114	1	56	0	120	0.887567808997119	1	0	0
102	1	106	137	0	53	0	122	0.816932332993019	1	0	0
103	1	101	34	0	51	0	120	1.14571636798792	0	0	0
104	1	117	119	0	59	0	122	1.06791145900206	1	0	0
105	0	135	106	1	56	0	120	1.00634730300226	1	0	0
106	0	58	133	0	54	0	120	0.779315167004825	1	0	0
107	0	74	81	1	52	0	120	0.881605255999602	1	0	0
108	1	32	92	1	49	0	122	2.58027228900755	1	0	0
109	1	95	90	0	47	0	120	1.69019914699311	0	0	0
110	1	143	102	0	54	0	122	0.844969017998665	1	0	0
111	1	40	24	0	52	0	122	0.760310270008631	1	0	0
112	1	85	117	1	50	0	122	0.711233441004879	1	0	0
113	1	54	60	1	47	0	122	0.984817349002697	1	0	0
114	0	31	33	1	45	0	120	2.71915168700798	1	0	0
115	0	23	3	0	43	0	120	0.975194707993069	1	0	0
116	0	23	134	0	41	0	120	3.59004707400163	1	0	0
117	0	8	116	1	39	0	120	1.86758771000314	1	0	0
118	0	105	16	1	37	0	120	2.12656636499742	1	0	0
119	0	133	89	0	35	0	120	1.62264943199989	1	0	0
120	1	33	127	1	33	0	122	1.84357973599981	1	0	0
121	1	26	70	1	31	0	122	1.31846009699802	1	0	0
122	1	31	68	1	30	0	122	1.05499488899659	1	0	0
123	0	84	109	1	28	0	120	2.2981958080054	1	0	0
124	0	111	113	0	26	0	122	1.29195377799624	0	0	0
125	0	98	28	0	32	0	120	1.6542943759996	1	0	0
126	1	149	96	0	30	0	122	1.40969474198937	1	0	0
127	1	58	35	1	28	0	122	1.31093582299945	1	0	0
128	0	8	23	0	26	0	120	2.52811940699758	1	0	0
129	0	16	35	0	25	0	120	1.44778972200584	1	0	0
130	1	109	91	1	23	0	122	1.48392678800155	1	0	0
131	1	7	108	0	21	0	120	1.99728396399587	0	0	0
132	1	139	30	1	26	0	122	1.48288116700132	1	0	0
133	0	81	54	1	25	0	120	1.40517118500429	1	0	0
134	0	147	102	0	23	0	120	5.7461229210021	1	0	0
135	0	63	32	0	21	0	122	5.51443536899751	0	0	0
136	0	95	21	1	26	0	120	2.23451561298862	1	0	0
137	0	115	137	0	25	0	120	3.66242298399447	1	0	0
138	1	115	68	0	23	0	122	1.48167724900122	1	0	0
139	0	81	96	0	22	0	120	1.25208946899511	1	0	0
140	1	114	89	1	20	0	122	4.95197301899316	1	0	0
141	0	149	15	1	19	0	120	1.34268147499824	1	0	0
142	0	113	104	0	17	0	120	1.74301105800259	1	0	0
143	0	107	7	0	16	0	122	2.36676402599551	0	0	0
144	1	119	62	0	20	0	122	1.18129890500859	1	0	0
145	0	34	41	1	19	0	120	3.82029857599991	1	0	0
146	0	23	11	0	17	0	122	0.744961741002044	0	0	0
147	0	27	40	0	21	0	122	4.15040391699586	0	0	0
148	0	108	144	0	25	0	120	0.640114316003746	1	0	0
149	1	122	16	0	24	0	122	2.18027943100606	1	0	0
150	1	35	121	0	23	0	120	0.706144913987373	0	0	0
151	0	13	107	0	26	0	122	1.73931530499249	0	0	0
152	1	146	126	0	30	0	122	2.25083095600712	1	0	0
153	1	9	39	0	29	0	120	0.734429689997341	0	0	0
154	1	7	99	1	33	0	122	2.25448703599977	1	0	0
155	1	121	90	1	31	0	120	2.5776517589984	0	0	0
156	0	40	20	1	35	0	120	3.33639172199764	1	0	0
157	1	45	53	0	34	0	122	0.880273975999444	1	0	0
158	1	37	67	1	33	0	122	0.81853398399835	1	0	0
159	1	107	11	1	32	0	122	0.751492263007094	1	0	0
160	1	83	131	1	30	0	122	0.663015796002583	1	0	0
161	0	118	48	0	29	0	120	1.62560666599893	1	0	0
162	1	139	69	1	28	0	122	1.19800340798975	1	0	0
163	1	37	126	0	27	0	122	1.17194196399942	1	0	0
164	1	60	37	0	26	0	122	0.994685038007447	1	0	0
165	1	70	12	0	25	0	122	1.12809710699366	1	0	0
166	1	25	147	0	24	0	120	2.08025403499778	0	0	0
167	0	31	5	0	27	0	120	1.11474391400407	1	0	0
168	0	57	22	0	26	0	122	2.05189032800263	0	0	0
169	0	103	69	1	29	0	120	2.14335730699531	1	0	0
170	1	42	41	1	28	0	120	0.910907726996811	0	0	0
171	0	1	113	0	31	0	120	2.19682208199811	1	0	0
172	1	114	62	1	30	0	122	2.56503397000779	1	0	0
173	1	50	29	0	29	0	122	1.45226543799799	1	0	0
174	0	78	34	1	28	0	120	0.823097379005048	1	0	0
175	1	52	1	0	27	0	120	2.59652476300835	0	0	0
176	1	88	17	1	30	0	122	1.12189310099347	1	0	0
177	0	23	69	1	29	0	120	1.1593403989973	1	0	0
178	0	7	2	0	28	0	122	1.65710371499881	0	0	0
179	0	22	51	1	31	0	120	0.884424415999092	1	0	0
180	0	62	119	1	30	0	120	1.15877042200009	1	0	0
181	1	106	114	0	29	0	122	1.07783052799641	1	0	0
182	1	38	75	0	28	0	122	0.607684474001871	1	0	0
183	1	114	65	0	27	0	120	1.71699810099381	0	0	0
184	1	61	112	1	30	0	120	1.70989020400157	0	0	0
185	0	38	128	0	33	0	120	0.815630539000267	1	0	0
186	1	32	31	1	32	0	122	2.30822710099164	1	0	0
187	1	74	55	1	31	0	120	5.1646112419985	0	0	0
188	1	20	81	1	33	0	122	1.73063331500452	1	0	0
189	0	42	3	1	33	0	122	1.92381113998999	0	0	0
190	1	149	24	1	35	0	120	0.97982399299508	0	0	0
191	1	90	36	1	38	0	122	0.810395969005185	1	0	0
192	1	11	87	1	37	0	122	0.639463982995949	1	0	0
193	0	129	117	1	36	0	122	3.25093693300732	0	0	0
194	1	36	66	1	39	0	122	1.26272554000025	1	0	0
195	1	33	48	0	38	0	120	1.46608375999494	0	0	0
196	1	55	52	1	41	0	122	0.756265086994972	1	0	0
197	1	142	90	0	40	0	122	0.979898981997394	1	0	0
198	1	29	80	1	39	0	122	2.31455770799948	1	0	0
199	0	81	32	1	38	0	120	0.667219766997732	1	0	0
200	1	97	108	1	37	0	122	0.675606773002073	1	0	0
201	1	87	127	1	36	0	122	0.921093112992821	1	0	0
202	1	59	131	1	32	0	122	1.73228772201401	1	0	0
203	1	143	146	1	27	0	120	2.45456565500353	0	0	0
204	1	57	74	0	40	0	122	1.24245972999779	1	0	0
205	0	141	11	1	36	0	120	0.845500064999214	1	0	0
206	1	70	37	0	33	0	122	0.785458076003124	1	0	0
207	1	5	2	1	29	0	122	0.807552423997549	1	0	0
208	1	51	47	1	25	0	122	0.756112622999353	1	0	0
209	1	90	120	0	21	0	122	1.89149572599854	1	0	0
210	0	36	2	1	17	0	120	0.893285477010068	1	0	0
211	0	116	91	0	13	0	120	0.999325985991163	1	0	0
212	1	87	149	1	10	0	122	0.63668292699731	1	0	0
213	1	142	55	0	6	0	122	2.3766754570097	1	0	0
214	1	77	89	1	2	0	120	1.43165749599575	0	0	0
215	0	91	61	0	14	0	120	2.70710907600005	1	0	0
216	0	92	9	1	10	0	122	4.93188878199726	0	0	0
217	0	16	139	0	21	0	120	1.46803297600127	1	0	0
218	1	52	89	1	17	0	122	5.06260919899796	1	0	0
219	0	145	20	1	14	0	120	1.89012358999753	1	0	0
220	0	86	149	1	11	0	122	1.49140342600003	0	0	0
221	1	137	149	1	20	0	120	1.82930986100109	0	0	0
222	0	70	99	1	29	0	120	0.921468041997286	1	0	0
223	1	4	143	0	26	0	122	2.64994180799113	1	0	0
224	0	42	140	0	23	0	120	0.77327127699391	1	0	0
225	0	19	99	1	20	0	120	1.92364973100484	1	0	0
226	0	94	112	0	18	0	120	0.796104166991427	1	0	0
227	0	126	51	1	15	0	120	2.58652857699781	1	0	0
228	1	109	11	0	12	0	122	6.71225383901037	1	0	0
229	0	102	3	1	9	0	122	3.08088136199513	0	0	0
230	0	125	140	0	17	0	122	3.53065523999976	0	0	0
231	0	34	115	1	25	0	120	1.54664763400797	1	0	0
232	1	4	82	1	23	0	120	4.34451728100248	0	0	0
233	1	49	43	1	31	0	120	1.22635411200463	0	0	0
234	0	63	107	0	38	0	120	2.90301107800042	1	0	0
235	1	98	70	0	36	0	122	0.977158897003392	1	0	0
236	0	87	81	1	33	0	120	0.75172283599386	1	0	0
237	0	81	97	1	31	0	120	0.774737347004702	1	0	0
238	1	76	11	1	28	0	122	2.49366622799425	1	0	0
239	1	96	94	1	26	0	122	0.622735084005399	1	0	0
240	1	40	149	1	24	0	120	1.8914508230082	0	0	0
241	0	137	8	1	31	0	120	1.38102989699109	1	0	0
242	1	147	48	1	29	0	122	3.51555772899883	1	0	0
243	0	60	93	1	26	0	122	0.892251568002393	0	0	0
244	0	119	12	0	33	0	120	0.854654177004704	1	0	0
245	0	97	77	1	31	0	120	0.818053023001994	1	0	0
246	0	77	103	0	29	0	120	2.55060107899772	1	0	0
247	1	83	140	1	27	0	122	1.17191460600588	1	0	0
248	1	87	47	1	24	0	120	2.29250157000206	0	0	0
249	1	119	116	1	31	0	122	0.890970389998984	1	0	0
250	0	134	62	1	29	0	120	2.23243996099336	1	0	0
251	0	85	133	0	27	0	120	2.32444572800887	1	0	0
252	0	20	101	0	25	0	122	0.764857092988677	0	0	0
253	0	62	15	1	31	0	120	1.97148466999352	1	0	0
254	1	8	5	0	29	0	122	0.666828317000181	1	0	0
255	1	133	93	1	27	0	122	0.924686172002112	1	0	0
256	1	66	6	1	25	0	122	1.5410318840004	1	0	0
257	1	70	10	1	23	0	122	2.16552225600753	1	0	0
258	1	74	130	0	21	0	120	2.12400503599201	0	0	0
259	0	82	96	1	27	0	120	3.34042372199474	1	0	0
260	1	97	126	0	25	0	122	0.651020339006209	1	0	0
261	1	41	11	1	23	0	122	3.26263673999347	1	0	0
262	1	29	21	1	21	0	122	1.51887442900625	1	0	0
263	1	103	16	0	19	0	122	0.88255282099999	1	0	0
264	0	74	19	0	17	0	120	1.51611125499767	1	0	0
265	0	70	134	1	16	0	122	0.828466120990925	0	0	0
266	1	29	43	0	21	0	122	2.52914688098826	1	0	0
267	1	32	124	1	19	0	122	1.72116727799585	1	0	0
268	0	70	1	1	17	0	122	1.20133501700184	0	0	0
269	1	83	148	0	22	0	122	1.30277280599694	1	0	0
270	0	79	1	1	21	0	120	1.19275179499527	1	0	0
271	1	83	130	0	19	0	122	0.68594694598869	1	0	0
272	0	85	26	0	17	0	120	1.2558657030022	1	0	0
273	0	88	62	1	16	0	120	1.2515183170035	1	0	0
274	1	73	149	1	14	0	122	1.65438133499993	1	0	0
275	0	15	102	0	13	0	122	5.32186055000057	0	0	0
276	0	85	65	1	18	0	120	0.842818796998472	1	0	0
277	0	42	142	0	16	0	120	6.55114490099368	1	0	0
278	1	90	38	0	14	0	122	0.798173118993873	1	0	0
279	0	136	107	1	13	0	122	3.4688904509967	0	0	0
280	1	27	150	0	18	0	122	0.887146808992838	1	0	0
281	0	86	77	0	16	0	122	2.88969412000733	0	0	0
282	1	47	57	0	21	0	122	0.802943980001146	1	0	0
283	0	119	86	1	19	0	122	2.78437282099912	0	0	0
284	1	14	17	1	23	0	120	2.89471813100681	0	0	0
285	1	35	76	0	28	0	120	0.975886868996895	0	0	0
286	0	116	84	0	33	0	120	0.822815282997908	1	0	0
287	1	106	118	0	31	0	122	1.61971695399552	1	0	0
288	1	136	23	1	30	0	122	1.77617274699151	1	0	0
289	1	48	70	1	28	0	122	1.99031267598912	1	0	0
290	1	144	42	1	27	0	122	2.12474318699969	1	0	0
291	0	115	83	0	25	0	120	1.14871249000134	1	0	0
292	0	86	100	0	24	0	120	0.732116029990721	1	0	0
293	0	111	37	1	22	0	120	1.8762831339991	1	0	0
294	1	35	51	0	21	0	122	1.15092483299668	1	0	0
295	1	35	128	1	20	0	122	2.52614582701062	1	0	0
296	1	28	49	0	18	0	122	2.01392445100646	1	0	0
297	0	24	134	1	17	0	122	1.10705665100249	0	0	0
298	0	89	80	1	21	0	120	1.65163768200728	1	0	0
299	0	78	116	1	20	0	122	1.23960515100043	0	0	0
300	0	100	94	0	23	0	122	0.703546610995545	0	0	0
