Trial	Gender_Face1	Face1_nb	Face2_nb	Right_left_flip	Nb_Bubbles	Overlap_Target	Response	RT	Accuracy	Simi2Target	Trial_Reward
1	1	23	128	0	48	0	122	0.998812253999859	1	0.0524616814735663	10.409677003319
2	0	78	124	1	45	0	120	0.542893359001027	1	0.0476989900289013	10.5317515270736
3	0	2	144	0	43	0	120	0.599709602998701	1	0.0646096692100099	10.6375143482975
4	0	87	42	1	40	0	122	0.566536729000291	0	0.0665330986713303	-21.6860369404312
5	1	104	84	0	48	0	120	1.26125195500026	0	0.0544477801253807	-20.8193540066379
6	1	59	55	1	55	0	120	0.68668617900039	0	0.0595407351710262	-20.4858193816224
7	0	108	75	1	62	0	120	0.713284699999349	1	0.0542851662692466	10.1710338869944
8	0	78	72	0	60	0	120	0.625364246001482	1	0.125714710545262	10.1854890507786
9	1	118	110	0	58	0	120	0.790844851000656	0	0.109043444438103	-20.4084952530382
10	0	53	138	1	64	0	120	0.626549860999148	1	0.0276057130616876	10.1599824349267
11	1	34	25	1	62	0	120	0.607571024000208	0	0.0820673115175792	-20.3420677739887
12	0	24	38	1	68	0	120	0.7070658800003	1	0.0738383301814705	10.1452961872043
13	1	81	95	0	66	0	122	0.692435117998684	1	0.0618355041090015	10.1516009638473
14	1	116	15	1	64	0	122	0.582684603001326	1	0.088983953146122	10.1599824349267
15	1	121	39	0	62	0	122	0.532070254001155	1	0.0455001119720432	10.1710338869944
16	1	39	30	1	60	0	120	0.731735825000214	0	0.063484863362015	-20.3709781015572
17	1	147	118	0	66	0	120	0.867149853998853	0	0.100236582443172	-20.3032019276947
18	0	121	80	0	71	0	120	0.606883290000042	1	0.120570685534496	10.1387201003248
19	1	98	122	0	69	0	122	0.523310178999964	1	0.0580539925619609	10.1427699445011
20	0	96	91	1	68	0	120	0.555936120999831	1	0.0946353441665457	10.1452961872043
21	0	3	138	1	66	0	120	0.681669503999728	1	0.0820219299034725	10.1516009638473
22	0	15	76	0	64	0	120	0.580150436999247	1	0.0693616877146203	10.1599824349267
23	0	120	22	0	63	0	122	0.857307642998421	0	0.0709385693455916	-20.3302642619318
24	0	43	33	1	68	0	120	0.635179692999372	1	0.0546175430258423	10.1452961872043
25	1	69	129	1	66	0	122	0.599192444000437	1	0.113819814656962	10.1516009638473
26	1	64	13	1	65	0	122	0.613214189999781	1	0.106013180352037	10.1554980453995
27	0	6	15	1	63	0	120	0.641506105999724	1	0.0763796931899503	10.1651321309659
28	0	25	39	1	62	0	120	0.565683652999724	1	0.0886111504471312	10.1710338869944
29	0	66	99	1	60	0	120	0.627670324000064	1	0.0486635808511927	10.1854890507786
30	0	130	107	0	59	0	120	0.832032285999958	1	0.112676319540072	10.1942669347537
31	1	4	67	1	57	0	122	0.715977441001087	1	0.0913649037206579	10.2155742425688
32	0	3	80	1	56	0	122	0.676012564999837	0	0.0532998705181789	-20.4568081430681
33	1	84	21	1	60	0	122	0.582086582000557	1	0.0487844883742272	10.1854890507786
34	0	62	71	0	59	0	120	1.15572318900013	1	0.0460398088578649	10.1942669347537
35	0	9	85	1	57	0	120	0.738378857000498	1	0.0501518503844864	10.2155742425688
36	1	148	68	1	56	0	120	0.595769657000346	0	0.0698580727261132	-20.4568081430681
37	1	5	76	1	60	0	122	0.575817462000487	1	0.0866702043302856	10.1854890507786
38	1	51	142	0	59	0	122	0.575294797999959	1	0.0492000808129301	10.1942669347537
39	0	127	134	0	57	0	120	0.852482124000744	1	0.0900360802358191	10.2155742425688
40	0	79	108	1	56	0	120	0.936317453999436	1	0.0786300295771378	10.2284040715341
41	1	140	95	0	55	0	122	0.598807919001047	1	0.104640771586633	10.2429096908112
42	0	1	62	0	54	0	120	0.716330613000537	1	0.0645268855132366	10.2592801621694
43	1	122	7	1	52	0	120	0.925976503000129	0	0.0387781330163659	-20.5969242895297
44	1	19	52	0	56	0	122	0.708644031001313	1	0.071698523630199	10.2284040715341
45	0	124	146	1	55	0	120	0.606613161999121	1	0.0393760920765229	10.2429096908112
46	0	59	87	0	54	0	122	0.858441188000143	0	0.072468614382626	-20.5185603243388
47	0	35	62	1	57	0	120	0.725342806001208	1	0.0716774012029137	10.2155742425688
48	1	144	147	0	56	0	122	0.83656953100035	1	0.0933295413964175	10.2284040715341
49	0	117	115	1	55	0	120	0.985709394000878	1	0.0603784563455962	10.2429096908112
50	0	100	118	1	54	0	120	0.734408027999962	1	0.0467763571427033	10.2592801621694
51	1	75	93	0	53	0	122	1.29511962700053	1	0.0295280205018476	10.2777223170449
52	0	12	71	1	52	0	122	0.968986320000113	0	0.0395965029111147	-20.5969242895297
53	0	70	86	0	55	0	120	0.815038746999562	1	0.0939787306185341	10.2429096908112
54	0	98	53	0	54	0	120	1.02832798099917	1	0.0488202512008897	10.2592801621694
55	1	70	150	1	53	0	122	0.886930872999073	1	0.0504760782767097	10.2777223170449
56	0	83	39	0	52	0	120	1.0181023160003	1	0.0987730785107001	10.2984621447649
57	0	113	144	1	51	0	120	0.703034091999143	1	0.0791453702991787	10.3217462999684
58	1	57	52	1	50	0	122	0.774911756998335	1	0.107493509352253	10.3478437490739
59	1	33	140	0	49	0	122	0.621819177000361	1	0.0917757977804498	10.3770475798729
60	0	25	146	0	48	0	122	1.0493479859997	0	0.0396696306602643	-20.8193540066379
61	0	139	141	1	51	0	120	0.74070829899938	1	0.0449193906188151	10.3217462999684
62	1	41	108	1	50	0	120	0.693743304998861	0	0.0574499534629448	-20.6956874981478
63	0	114	20	1	53	0	120	1.08521890300108	1	0.0307272373419512	10.2777223170449
64	1	7	126	1	52	0	122	0.641112037001221	1	0.0310589632801466	10.2984621447649
65	0	87	83	0	51	0	120	1.00400220899974	1	0.0524652002920362	10.3217462999684
66	1	31	134	1	50	0	122	0.577273154000068	1	0.0894026787856944	10.3478437490739
67	1	146	99	0	49	0	120	0.679595120000158	0	0.0583553605168178	-20.7540951597459
68	1	19	70	0	52	0	122	1.81602155099972	1	0.0635278143036965	10.2984621447649
69	1	145	70	1	51	0	122	0.550056742000379	1	0.0650264343768469	10.3217462999684
70	1	140	65	0	50	0	122	0.709392315000514	1	0.0625805216271	10.3478437490739
71	0	9	60	0	49	0	120	0.780815604000964	1	0.105270475711144	10.3770475798729
72	0	77	87	0	48	0	120	0.666864512000757	1	0.0933610176119777	10.409677003319
73	0	34	120	0	47	0	120	0.622072289999778	1	0.0189209534393281	0
74	0	43	41	0	46	0	120	0.890598465999574	1	0.0469189848952366	10.4866337303374
75	0	138	74	1	45	0	120	0.771537467999224	1	0.0419081462643875	10.5317515270736
76	0	17	131	0	44	0	120	0.777527768999789	1	0.0639599427800769	10.5818819156885
77	0	58	32	0	44	0	120	0.632243078000101	1	0.0376265309058845	10.5818819156885
78	1	142	13	1	43	0	120	0.770190512001136	0	0.0767080507333594	-21.275028696595
79	0	130	48	0	45	0	120	0.746393612000247	1	0.127236817839609	10.5317515270736
80	0	123	101	0	44	0	120	0.634087580998312	1	0.0845672739784423	10.5818819156885
81	1	95	14	0	44	0	122	0.574449533000006	1	0.0688304477800154	10.5818819156885
82	0	35	102	0	43	0	120	0.554583361999903	1	0.0795141012053369	10.6375143482975
83	1	24	109	0	42	0	120	0.954666178999105	0	0.0323962857205474	-21.3983659356866
84	1	125	141	1	44	0	120	0.826987447000647	0	0.0392987981085181	-21.1637638313771
85	1	94	48	1	47	0	122	0.909515612000177	1	0.0373955977086193	10.4460795824527
86	0	31	86	1	46	0	120	0.63891444500041	1	0.0585794947569745	10.4866337303374
87	0	107	86	0	45	0	120	1.78564985499906	1	0.019941403097063	0
88	0	47	1	1	44	0	120	0.775945908000722	1	0.0562757854088925	10.5818819156885
89	0	7	108	0	44	0	120	0.765077866999491	1	0.0627607363052769	10.5818819156885
90	1	61	93	1	43	0	120	0.67673188200024	0	0.0758638417867324	-21.275028696595
91	0	97	93	0	45	0	120	0.615058248000423	1	0.0265152877901603	10.5317515270736
92	0	116	145	1	44	0	120	0.778856582999651	1	0.0746850388309832	10.5818819156885
93	1	105	58	1	44	0	122	0.672466354999415	1	0.0435869603976192	10.5818819156885
94	1	51	35	0	43	0	120	1.90666251900075	0	0.0558119264352435	-21.275028696595
95	0	24	123	1	45	0	120	0.692609077999805	1	0.0360370084742792	10.5317515270736
96	0	7	88	0	44	0	122	1.82824613999946	0	0.0372196036575489	-21.1637638313771
97	1	19	88	1	46	0	122	0.560166209001181	1	0.0191749733233056	0
98	0	14	127	1	46	0	120	1.57735199300078	1	0.0365307067634639	10.4866337303374
99	0	125	142	1	45	0	122	0.805784004000088	0	0.0787380652377789	-21.0635030541472
100	1	21	32	0	47	0	122	0.810054867999497	1	0.0434693719119255	10.4460795824527
101	0	9	52	0	47	0	120	0.74346441599846	1	0.041831360665841	10.4460795824527
102	0	141	129	0	44	0	120	0.595187371998691	1	0.0393911515333422	10.5818819156885
103	0	41	147	0	42	0	120	0.802306916000816	1	0.0818011883907355	10.6991829678433
104	0	40	44	0	39	0	120	0.615844413001469	1	0.0757336307393277	10.9265244157653
105	1	137	26	1	37	0	120	0.819378948999656	0	0.0303305014771572	-22.2411378325436
106	1	121	4	0	44	0	120	0.529847604000679	0	0.0652809309236059	-21.1637638313771
107	0	76	84	0	52	0	120	0.600069063000774	1	0.0370803870896513	10.2984621447649
108	1	52	42	0	50	0	120	0.97477547500057	0	0.0427508103140169	-20.6956874981478
109	0	112	14	0	56	0	120	0.715437020000536	1	0.0431470096892227	10.2284040715341
110	0	76	112	1	54	0	120	0.539903965000121	1	0.0894631779597412	10.2592801621694
111	1	139	41	0	52	0	122	0.707936369999516	1	0.0743456704624927	10.2984621447649
112	0	69	61	1	50	0	120	0.597549357000389	1	0.0546616748229403	10.3478437490739
113	0	1	22	1	48	0	120	0.618770811001013	1	0.0459498017624667	10.409677003319
114	1	15	38	0	46	0	122	0.759201728000335	1	0.0243945403689106	0
115	1	21	41	1	44	0	122	0.902138363999256	1	0.0461777429302382	10.5818819156885
116	0	149	126	1	42	0	120	0.598585113999434	1	0.0358914801324191	10.6991829678433
117	1	88	61	0	40	0	120	0.78836723799941	0	0.0449186279254319	-21.6860369404312
118	1	43	107	0	46	0	122	1.06563301299866	1	0.0428957588191899	10.4866337303374
119	0	88	148	0	44	0	120	0.684514156999285	1	0.0739956750855399	10.5818819156885
120	0	95	56	0	42	0	120	0.559118891000253	1	0.0652808763631856	10.6991829678433
121	1	99	51	1	41	0	120	0.716872944998613	0	0.0442735086010931	-21.5349428550014
122	0	56	98	1	46	0	120	0.727327105998484	1	0.0920648266608565	10.4866337303374
123	1	44	68	0	44	0	120	0.941433128000426	0	0.067142134588649	-21.1637638313771
124	1	93	71	0	50	0	120	0.644965970001067	0	0.0740462782694366	-20.6956874981478
125	0	54	61	1	54	0	120	1.07303919600054	1	0.0786330282645255	10.2592801621694
126	0	31	57	1	53	0	120	0.67503380800008	1	0.0425154074755739	10.2777223170449
127	0	78	54	0	51	0	120	0.595909297999242	1	0.0853205937242506	10.3217462999684
128	0	80	68	0	50	0	120	0.746152781999626	1	0.138179396987406	10.3478437490739
129	1	100	88	0	48	0	120	0.553520532999755	0	0.0619706853949635	-20.8193540066379
130	1	6	4	1	53	0	122	0.792032992998429	1	0.0274088751871816	10.2777223170449
131	0	75	20	0	51	0	120	0.68523881100009	1	0.130473429043418	10.3217462999684
132	1	14	51	0	50	0	120	0.864354038998499	0	0.0821094559022974	-20.6956874981478
133	1	146	74	0	54	0	120	0.593809318999774	0	0.107143287488774	-20.5185603243388
134	0	63	19	1	58	0	120	0.671282900000733	1	0.060015666189127	10.2042476265191
135	1	131	130	1	57	0	122	0.626155424999524	1	0.0924113891315259	10.2155742425688
136	1	149	23	1	55	0	120	0.909633319000932	0	0.0432033290390369	-20.4858193816224
137	0	98	73	0	60	0	120	0.71202019500015	1	0.0521115075115742	10.1854890507786
138	0	60	3	0	58	0	120	0.599482686000556	1	0.0440489166298166	10.2042476265191
139	1	75	76	1	57	0	122	1.02949347199865	1	0.0807521620805173	10.2155742425688
140	1	146	12	1	55	0	120	0.576288279000437	0	0.0885242587552047	-20.4858193816224
141	1	143	63	1	59	0	120	0.830844090000028	0	0.101182236214517	-20.3885338695075
142	1	84	84	1	63	0	122	0.778673109998635	1	0.126008993639504	10.1651321309659
143	0	81	72	0	62	0	120	0.576203667998925	1	0.0458255587809566	10.1710338869944
144	0	40	79	0	61	0	120	0.919635501000812	1	0.0678084651602762	10.1777839839948
145	0	53	69	0	59	0	120	0.695817374000399	1	0.0720023447682948	10.1942669347537
146	1	108	87	0	58	0	122	0.745359384998665	1	0.0681877529459645	10.2042476265191
147	0	9	43	1	57	0	120	1.06492987999991	1	0.0396411240365787	10.2155742425688
148	1	32	103	0	56	0	122	0.83556976699947	1	0.0907160699639852	10.2284040715341
149	1	51	121	0	54	0	122	0.575686719001169	1	0.0936561080682354	10.2592801621694
150	1	35	110	0	53	0	120	1.07624081500035	0	0.0813631816152426	-20.5554446340898
151	0	95	98	1	57	0	120	0.74255451299905	1	0.0318003908536591	10.2155742425688
152	1	67	117	1	56	0	122	0.638208544000008	1	0.0474942372063658	10.2284040715341
153	1	79	37	0	55	0	122	1.00979725800062	1	0.037663849892907	10.2429096908112
154	1	134	35	0	53	0	122	0.71814273200107	1	0.0529072740796775	10.2777223170449
155	0	81	32	1	52	0	120	0.70271733699883	1	0.114941054894425	10.2984621447649
156	1	149	69	1	51	0	120	0.833025370000541	0	0.0350652929717352	-20.6434925999369
157	1	75	57	1	55	0	122	0.539858138999989	1	0.132272296517013	10.2429096908112
158	0	65	49	0	53	0	120	1.68429749300049	1	0.0664828278734013	10.2777223170449
159	1	105	16	0	52	0	122	0.909547068000393	1	0.0430075472720755	10.2984621447649
160	1	68	111	1	51	0	122	0.814373175999208	1	0.0404259659737126	10.3217462999684
161	1	99	45	1	50	0	122	0.603557437998461	1	0.104170594206682	10.3478437490739
162	0	34	99	0	49	0	120	0.785230628000136	1	0.0420062677087282	10.3770475798729
163	0	10	75	1	48	0	122	0.533541962000527	0	0.0617818501517463	-20.8193540066379
164	1	96	65	1	51	0	122	0.54227372799869	1	0.0820953493967573	10.3217462999684
165	1	8	17	1	50	0	122	1.23049029599861	1	0.0716879036087276	10.3478437490739
166	1	122	64	1	49	0	122	0.753611103000367	1	0.0561066770210502	10.3770475798729
167	0	30	17	0	48	0	120	1.00965761800035	1	0.0539865043924107	10.409677003319
168	1	85	81	0	47	0	122	0.92475681399992	1	0.0204917732225222	0
169	1	99	122	1	46	0	122	1.07739344000038	1	0.0639532535193005	10.4866337303374
170	1	87	100	1	45	0	120	0.961062963999211	0	0.0759697632810789	-21.0635030541472
171	0	67	19	0	48	0	120	1.09414812899922	1	0.0387330965815268	10.409677003319
172	1	80	74	0	47	0	122	0.639299102000223	1	0.0743490145274192	10.4460795824527
173	1	38	123	0	46	0	122	0.684229705999314	1	0.0460972235410689	10.4866337303374
174	1	32	60	0	45	0	122	0.821825698998509	1	0.0837232902037279	10.5317515270736
175	0	93	49	0	45	0	120	0.82507539299877	1	0.0561829995028678	10.5317515270736
176	1	42	95	0	44	0	120	1.34107769700131	0	0.0365781394295472	-21.1637638313771
177	1	139	43	1	46	0	122	0.772586821000004	1	0.0580413837757339	10.4866337303374
178	1	120	148	0	45	0	122	1.29947771500156	1	0.0886474198952786	10.5317515270736
179	1	120	58	0	44	0	120	0.860338123999099	0	0.0781177437811123	-21.1637638313771
180	1	48	149	0	47	0	122	0.743231776999892	1	0.078153718419492	10.4460795824527
181	0	115	86	0	46	0	120	1.31120635099978	1	0.0845574925041645	10.4866337303374
182	1	90	114	0	45	0	122	0.543485968000823	1	0.0927505696301568	10.5317515270736
183	1	101	79	0	45	0	120	0.869494417000169	0	0.109660361840228	-21.0635030541472
184	0	69	118	1	47	0	120	0.784303698999793	1	0.0453802218670726	10.4460795824527
185	1	129	145	1	46	0	122	0.855428867998853	1	0.0775589904066738	10.4866337303374
186	0	64	66	1	46	0	120	0.770325208000941	1	0.0671396377681671	10.4866337303374
187	1	100	79	0	45	0	120	0.960475244999543	0	0.0310416280090967	-21.0635030541472
188	0	43	56	1	47	0	120	0.895427465999092	1	0.0499122703865203	10.4460795824527
189	1	145	117	0	46	0	122	0.736021683000217	1	0.048743507529349	10.4866337303374
190	0	114	46	1	46	0	120	1.10340202400039	1	0.0939840666534814	10.4866337303374
191	0	33	6	1	45	0	120	1.03433955699984	1	0.0692253116816215	10.5317515270736
192	0	35	138	0	44	0	120	0.813262043999202	1	0.0744756378522626	10.5818819156885
193	0	113	57	0	43	0	122	1.11379038999985	0	0.0530393608057379	-21.275028696595
194	0	126	138	1	46	0	120	0.595373381000172	1	0.032233089644163	10.4866337303374
195	0	8	112	0	45	0	120	1.34408120700027	1	0.034212674978919	10.5317515270736
196	0	97	14	0	44	0	120	0.679280637999909	1	0.0679382706936133	10.5818819156885
197	1	9	93	1	43	0	122	1.0262961770004	1	0.0395341832121229	10.6375143482975
198	1	149	23	1	43	0	120	0.733757870000773	0	0.0608501669613677	-21.275028696595
199	1	91	59	1	45	0	122	0.933265716001188	1	0.0440429646167416	10.5317515270736
200	0	20	65	0	44	0	120	0.773814423000658	1	0.0392844221722848	10.5818819156885
201	0	55	108	1	44	0	122	1.17776832900017	0	0.0524214940682401	-21.1637638313771
202	1	86	98	0	52	0	120	0.652224591000049	0	0.0439351009561191	-20.5969242895297
203	0	121	32	1	59	0	120	0.777584725999986	1	0.0750038215497542	10.1942669347537
204	0	104	133	1	56	0	120	0.535768719999396	1	0.0429952928301507	10.2284040715341
205	1	144	84	1	54	0	120	0.607618996000383	0	0.0760023251963116	-20.5185603243388
206	1	37	109	1	61	0	120	0.565128988999277	0	0.0589929196631365	-20.3555679679896
207	1	109	136	0	67	0	122	0.771439899001052	1	0.0364528826032861	10.1482212197032
208	1	86	87	0	65	0	122	0.627080624999508	1	0.061194752268984	10.1554980453995
209	0	91	28	1	63	0	120	0.774182469000152	1	0.0667775471040009	10.1651321309659
210	0	135	138	1	61	0	120	0.572533909999038	1	0.0530175230066343	10.1777839839948
211	0	14	102	0	60	0	120	0.802819476999503	1	0.0489137104843727	10.1854890507786
212	0	136	95	0	58	0	120	0.679392576999817	1	0.08307135023537	10.2042476265191
213	1	84	130	0	56	0	122	0.673674456000299	1	0.0128955888999433	0
214	1	99	23	0	54	0	122	0.611338983999303	1	0.0818114405835855	10.2592801621694
215	1	60	134	1	52	0	122	0.769443517001491	1	0.0776039641404153	10.2984621447649
216	1	134	55	0	51	0	122	0.87100024999927	1	0.0609077451005636	10.3217462999684
217	0	150	82	0	49	0	120	0.70564888700028	1	0.0935344566591592	10.3770475798729
218	1	48	3	0	47	0	120	0.657547857001191	0	0.0706333338796231	-20.8921591649053
219	0	31	147	1	53	0	122	0.957793915000366	0	0.121527997412086	-20.5554446340898
220	0	119	113	0	57	0	120	1.05210543300018	1	0.108276643583567	10.2155742425688
221	0	127	45	1	56	0	120	0.718203351001648	1	0.0974566859911753	10.2284040715341
222	1	5	50	1	54	0	122	0.648454242000298	1	0.104205657947451	10.2592801621694
223	0	18	69	1	53	0	120	0.835545678000926	1	0.0291940207690194	10.2777223170449
224	1	30	54	1	51	0	120	0.686137808999774	0	0.0279915397106977	-20.6434925999369
225	1	79	69	1	56	0	122	0.594055745999867	1	0.0552005243188117	10.2284040715341
226	0	2	106	0	54	0	120	0.766972343999441	1	0.0339325833133724	10.2592801621694
227	0	3	135	0	53	0	120	0.660000141000637	1	0.0562195600581132	10.2777223170449
228	0	72	117	0	51	0	120	0.822942755999975	1	0.042992599673117	10.3217462999684
229	1	17	103	0	50	0	122	0.867169946999638	1	0.0320115614038691	10.3478437490739
230	1	123	90	1	48	0	122	0.805281797000134	1	0.0536753870963632	10.409677003319
231	1	114	138	0	47	0	122	0.860334469000009	1	0.0444052274290093	10.4460795824527
232	0	80	141	1	45	0	120	0.805183458000101	1	0.0511828379907217	10.5317515270736
233	1	114	67	1	44	0	120	1.14695126700099	0	0.00642191203774654	-0
234	0	67	79	0	48	0	120	1.13911256700158	1	0.0792167652941149	10.409677003319
235	1	25	145	1	47	0	120	1.33144991799963	0	0.0628180714275723	-20.8921591649053
236	0	71	50	1	51	0	120	0.858428768999147	1	0.0890813477687398	10.3217462999684
237	1	106	137	0	49	0	122	0.956570878999628	1	0.100032520456472	10.3770475798729
238	1	142	19	1	48	0	120	0.971771577000254	0	0.0351650091521442	-20.8193540066379
239	1	57	75	0	52	0	120	0.674360320001142	0	0.0974604807857417	-20.5969242895297
240	1	115	129	1	56	0	122	0.731857311999192	1	0.0523220473213085	10.2284040715341
241	1	19	101	0	55	0	122	0.620864972999698	1	0.0824372782134728	10.2429096908112
242	0	39	124	1	53	0	120	0.937230032999651	1	0.0341204521482581	10.2777223170449
243	0	1	69	0	52	0	120	0.785979285999929	1	0.105334570121336	10.2984621447649
244	0	98	110	0	51	0	122	1.1585470709997	0	0.097937076056504	-20.6434925999369
245	1	59	57	0	54	0	120	0.766403043000537	0	0.0910769593283647	-20.5185603243388
246	1	31	83	1	58	0	122	0.811284220999369	1	0.0962142470067791	10.2042476265191
247	0	139	28	0	57	0	120	0.736469425000905	1	0.0550431711216241	10.2155742425688
248	1	62	9	0	56	0	120	1.01756614499936	0	0.0171972601444503	-0
249	1	131	30	0	59	0	120	0.965414650998355	0	0.0478331426461422	-20.3885338695075
250	1	107	132	0	63	0	122	0.723407048999434	1	0.0628728971146033	10.1651321309659
251	0	14	102	0	62	0	120	0.691445245000068	1	0.0923882068647133	10.1710338869944
252	1	128	150	0	61	0	122	0.877193339998485	1	0.0543166369334884	10.1777839839948
253	1	13	138	0	59	0	120	0.840064149000682	0	0.104025121618239	-20.3885338695075
254	1	71	19	1	63	0	122	0.747106303000692	1	0.0769932538480553	10.1651321309659
255	1	80	142	1	62	0	122	0.633090725001239	1	0.103404309734955	10.1710338869944
256	1	88	95	1	61	0	122	0.638478662000125	1	0.0259585788842268	10.1777839839948
257	1	133	112	1	60	0	122	0.688987223000368	1	0.0317233215968446	10.1854890507786
258	0	103	73	0	59	0	120	0.812056118998953	1	0.0772492359398185	10.1942669347537
259	1	11	143	1	58	0	122	0.735953084998982	1	0.095412650831649	10.2042476265191
260	0	86	129	0	56	0	120	0.679076287000498	1	0.0979077793146107	10.2284040715341
261	1	59	119	1	55	0	122	0.650636379999924	1	0.0760696775388989	10.2429096908112
262	0	111	12	1	54	0	120	1.3579752379992	1	0.0753133853223666	10.2592801621694
263	0	122	73	0	53	0	120	1.08278168600009	1	0.0775096974899701	10.2777223170449
264	0	48	123	0	52	0	122	1.6462257940002	0	0.0518870727856579	-20.5969242895297
265	1	20	95	0	55	0	122	1.12185676899935	1	0.0478938916800825	10.2429096908112
266	1	3	130	1	54	0	120	1.20937664400117	0	0.0543803375740601	-20.5185603243388
267	1	4	109	1	57	0	122	1.09332160099984	1	0.0700991745769673	10.2155742425688
268	1	100	24	1	56	0	122	0.999366857000496	1	0.0654143654491688	10.2284040715341
269	1	35	149	1	55	0	120	0.877602832000775	0	0.0728177969466383	-20.4858193816224
270	0	85	8	0	58	0	120	1.09441303000131	1	0.0621909688864531	10.2042476265191
271	1	39	128	0	57	0	122	1.34495074500046	1	0.0657374648205071	10.2155742425688
272	1	56	17	1	56	0	122	1.34369274200071	1	0.0620716634325544	10.2284040715341
273	1	20	80	0	55	0	120	1.01532007400056	0	0.0911558779194485	-20.4858193816224
274	1	1	97	0	58	0	122	0.722966633999022	1	0.103447063066485	10.2042476265191
275	0	44	74	0	57	0	120	0.714424842999506	1	0.0764593517482006	10.2155742425688
276	0	122	78	0	56	0	120	0.859764672999518	1	0.0485738993409177	10.2284040715341
277	0	58	138	0	55	0	122	1.00743059699926	0	0.0787018267128775	-20.4858193816224
278	0	133	93	0	58	0	120	0.794341266000629	1	0.0548293680701013	10.2042476265191
279	1	7	66	1	57	0	122	0.624976338000124	1	0.0528050108408542	10.2155742425688
280	0	67	49	1	56	0	120	0.693088660000285	1	0.0148622858911263	0
281	0	112	83	0	56	0	120	0.846467381999901	1	0.0437916045320198	10.2284040715341
282	1	121	73	0	55	0	122	0.705976055000065	1	0.0719093992594073	10.2429096908112
283	1	131	78	1	54	0	122	0.987137213000096	1	0.0731779421339647	10.2592801621694
284	1	123	48	0	53	0	120	1.00834158600082	0	0.114724728031863	-20.5554446340898
285	1	114	43	1	56	0	122	0.628324792000058	1	0.0970170102715205	10.2284040715341
286	1	103	71	1	55	0	120	1.24013987000035	0	0.111370461203836	-20.4858193816224
287	1	100	142	0	57	0	122	0.795708581999861	1	0.104039876457667	10.2155742425688
288	0	60	17	0	56	0	120	0.745443439000155	1	0.13196613980311	10.2284040715341
289	1	87	98	0	56	0	120	1.66465380800037	0	0.051641231386088	-20.4568081430681
290	0	37	42	1	58	0	120	0.691233843999726	1	0.0773096707424489	10.2042476265191
291	1	106	72	1	57	0	122	0.819826678000027	1	0.0854291229089437	10.2155742425688
292	1	42	90	0	56	0	120	0.712933920000069	0	0.0517443091213807	-20.4568081430681
293	0	127	138	0	59	0	120	0.881815298998845	1	0.0634674643939744	10.1942669347537
294	1	78	47	0	58	0	122	0.795295894999072	1	0.0408700133285677	10.2042476265191
295	1	49	122	0	57	0	122	0.954007735999767	1	0.0146399066298073	0
296	0	70	119	0	56	0	120	1.27241960699939	1	0.104937155100588	10.2284040715341
297	0	4	47	0	56	0	120	0.674789779001003	1	0.0724666530415563	10.2284040715341
298	1	131	145	0	55	0	122	0.772272849999354	1	0.0593104765718534	10.2429096908112
299	1	70	78	0	54	0	122	0.865772398999979	1	0.0436095765442723	10.2592801621694
300	0	10	66	0	53	0	120	0.685482939001304	1	0.063778105820842	10.2777223170449
301	1	38	133	0	53	0	122	0.601813295999818	1	0.0569622466161215	10.2777223170449
302	1	15	37	0	50	0	120	0.499128896999537	0	0.0716848774496949	-20.6956874981478
303	0	83	141	0	58	0	120	0.726388963999852	1	0.0820681058650839	10.2042476265191
304	1	53	1	1	56	0	122	0.687227974000052	1	0.0835205277287616	10.2284040715341
305	0	83	143	0	54	0	120	0.632823128000382	1	0.188017092999837	10.2592801621694
306	1	7	23	0	52	0	122	0.590526122001393	1	0.0684404297807908	10.2984621447649
307	0	35	99	1	49	0	120	0.722729630000686	1	0.0411757392287773	10.3770475798729
308	1	69	119	0	47	0	122	0.554674688000887	1	0.0907145896124222	10.4460795824527
309	1	67	88	1	45	0	122	0.722071741000036	1	0.0983852274502426	10.5317515270736
310	1	100	8	1	43	0	120	0.746856023999499	0	0.0457383729430073	-21.275028696595
311	0	65	91	1	49	0	122	0.873026546998517	0	0.0309202100014724	-20.7540951597459
312	1	148	3	1	55	0	120	0.691008251000312	0	0.102673356911418	-20.4858193816224
313	1	124	29	0	61	0	122	0.661254427999665	1	0.0541876049433399	10.1777839839948
314	0	37	110	0	59	0	120	0.656135306000579	1	0.0547634383659216	10.1942669347537
315	1	84	117	0	58	0	122	1.40965111999867	1	0.081830914755362	10.2042476265191
316	0	1	130	1	56	0	120	0.598960448000071	1	0.0843288440863847	10.2284040715341
317	1	63	145	1	54	0	122	0.619122497999342	1	0.0465693537292065	10.2592801621694
318	0	111	51	1	52	0	122	0.897222126000997	0	0.0506767679121509	-20.5969242895297
319	1	111	130	1	58	0	120	0.754483430000619	0	0.0523252909796146	-20.4084952530382
320	0	112	135	1	63	0	122	1.12954266200177	0	0.0992102901758402	-20.3302642619318
321	1	33	139	0	68	0	122	2.08985262399983	1	0.128706173783805	10.1452961872043
322	0	2	115	1	67	0	120	0.849712053000985	1	0.0783320077685494	10.1482212197032
323	0	145	82	1	65	0	120	1.20610421099991	1	0.0414282532317317	10.1554980453995
324	1	143	130	1	63	0	122	0.7462856739985	1	0.0924370574058646	10.1651321309659
325	1	79	117	0	62	0	122	0.786205055999744	1	0.0296648496175576	10.1710338869944
326	1	103	90	0	60	0	122	1.07248307900045	1	0.0399873287932635	10.1854890507786
327	0	95	21	1	59	0	120	0.585579848999259	1	0.0955719243191215	10.1942669347537
328	0	135	143	0	57	0	120	0.880477246999362	1	0.0728217314159024	10.2155742425688
329	1	49	110	1	56	0	122	1.34535132699966	1	0.0237927199204599	0
330	1	43	94	0	54	0	120	1.88938363600028	0	0.0878284916545387	-20.5185603243388
331	1	12	77	1	59	0	122	0.82631315800063	1	0.083834949607048	10.1942669347537
332	0	34	75	1	57	0	120	0.654397983000308	1	0.0651241543960005	10.2155742425688
333	1	17	139	0	56	0	122	0.665175912999985	1	0.035750028698222	10.2284040715341
334	0	108	6	0	54	0	120	0.940941679000389	1	0.0711099108612207	10.2592801621694
335	1	56	43	0	53	0	120	1.09248830199977	0	0.0691238022338761	-20.5554446340898
336	0	30	9	0	57	0	120	0.829587678001189	1	0.0927664643847009	10.2155742425688
337	0	94	110	1	56	0	120	0.962066666001192	1	0.108216483350087	10.2284040715341
338	1	126	7	0	54	0	122	0.91907646800064	1	0.0543801532761299	10.2592801621694
339	1	25	25	1	53	0	122	1.20144494899978	1	0.0594151250505422	10.2777223170449
340	1	24	141	0	52	0	122	0.765317178000259	1	0.115534966837366	10.2984621447649
341	1	27	16	0	50	0	122	0.669052196999473	1	0.0315116348156934	10.3478437490739
342	0	141	87	0	49	0	120	0.598382690999642	1	0.0282583649883047	10.3770475798729
343	1	16	17	0	48	0	122	0.716007546001492	1	0.0628397692701677	10.409677003319
344	1	111	46	1	47	0	122	1.34869027599962	1	0.106978024037886	10.4460795824527
345	0	24	43	0	45	0	120	1.25972066199938	1	0.101226672036625	10.5317515270736
346	1	61	62	1	44	0	120	0.878644944999905	0	0.0541342218152882	-21.1637638313771
347	0	96	116	1	48	0	120	0.88197402699916	1	0.0483773966600954	10.409677003319
348	1	84	26	0	46	0	122	1.06748162999975	1	0.0708806632938484	10.4866337303374
349	1	124	116	1	45	0	122	0.812866213998859	1	0.0677673070498988	10.5317515270736
350	0	108	15	0	44	0	120	1.15329656799986	1	0.0884131892175233	10.5818819156885
351	0	105	89	1	43	0	120	0.904687733998799	1	0.0399480053988148	10.6375143482975
352	0	126	37	1	42	0	120	0.610602527000083	1	0.0950909119304942	10.6991829678433
353	1	48	23	0	41	0	122	0.840371830001459	1	0.0393073897460298	10.7674714275007
354	1	120	76	0	40	0	122	1.00319490000038	1	0.0487100361310071	10.8430184702156
355	0	22	17	1	39	0	120	0.920482032999644	1	0.0578366071905704	10.9265244157653
356	0	47	148	0	38	0	120	0.95182743300029	1	0.0816474068412795	11.0187587334124
357	1	147	120	1	36	0	120	0.784280063000551	0	0.0342160842547976	-22.4657818420483
358	1	37	132	1	40	0	122	0.694525692000752	1	0.0190321756158679	0
359	1	45	44	0	39	0	122	0.800005622000754	1	0.059920580340858	10.9265244157653
360	0	76	130	1	37	0	120	0.574157052998999	1	0.0701331978777588	11.1205689162718
361	1	125	98	1	36	0	122	1.14714023000124	1	0.0657857628744826	11.2328909210242
362	1	86	124	1	35	0	122	0.602517163999437	1	0.0171446032895054	0
363	1	58	132	0	35	0	122	0.759445946998312	1	0.0421296848648514	11.3567614963619
364	0	83	97	1	34	0	120	0.831196342000112	1	0.0784996666056631	11.4933327992393
365	0	120	32	0	33	0	120	0.994375481999668	1	0.0736915140551842	11.6438897945462
366	1	102	70	1	32	0	122	0.783075035000365	1	0.0561763998624086	11.8098710579033
367	0	18	45	1	31	0	122	1.49214456999835	0	0.0405991281740153	-23.9857875238642
368	0	15	75	1	33	0	120	0.89531848399929	1	0.0655752268992594	11.6438897945462
369	0	11	93	1	33	0	120	0.783541549999427	1	0.0577569319348356	11.6438897945462
370	0	7	140	1	32	0	120	1.04628270000103	1	0.057704738652065	11.8098710579033
371	0	129	90	0	31	0	120	0.769011861999388	1	0.0668891169148309	11.9928937619321
372	1	127	49	0	30	0	120	0.816176762000396	0	0.0569849291961581	-24.3895676720387
373	1	117	49	0	32	0	122	1.06889234899973	1	0.0120612380601334	0
374	0	150	20	1	32	0	120	1.03155623200109	1	0.0520988084123203	11.8098710579033
375	0	72	46	0	31	0	122	1.11472297999899	0	0.05184831271198	-23.9857875238642
376	0	128	109	0	33	0	120	0.88435021100122	1	0.0641456565651682	11.6438897945462
377	0	97	14	1	32	0	120	0.829387359000975	1	0.0583918795700364	11.8098710579033
378	1	12	105	1	32	0	120	0.746803366000677	0	0.0455634593971177	-23.6197421158065
379	0	103	5	0	34	0	120	1.36905944599857	1	0.0148429874812531	0
380	1	77	20	1	33	0	122	0.768236669999169	1	0.0715107341213009	11.6438897945462
381	0	38	45	1	32	0	122	1.11080522300108	0	0.04013844105422	-23.6197421158065
382	1	117	109	0	35	0	122	0.807005474998732	1	0.0393005939425125	11.3567614963619
383	0	80	70	1	34	0	120	0.780007629999091	1	0.0646522241737466	11.4933327992393
384	0	78	85	1	33	0	120	0.728871105000508	1	0.0947029374512927	11.6438897945462
385	0	45	128	0	32	0	120	0.721645940999224	1	0.0932846165299705	11.8098710579033
386	0	72	93	1	32	0	120	0.738378412999737	1	0.0634588634410217	11.8098710579033
387	1	86	150	1	31	0	122	0.834094300000288	1	0.0458198444999589	11.9928937619321
388	1	13	16	0	30	0	120	1.1018059149992	0	0.02938340067867	-24.3895676720387
389	0	63	69	1	32	0	120	1.00784352499977	1	0.0178880636172827	0
390	0	88	52	0	32	0	120	0.981569609999497	1	0.0344981662756225	11.8098710579033
391	0	134	54	0	31	0	122	0.851086945000134	0	0.0318334744225554	-23.9857875238642
392	1	146	9	1	33	0	120	1.11907692400018	0	0.140716560361632	-23.2877795890924
393	1	144	139	1	35	0	120	0.734628800000792	0	0.0446201773866575	-22.7135229927238
394	0	125	21	0	38	0	120	1.11808238900085	1	0.0421392987404714	11.0187587334124
395	1	49	142	0	37	0	122	0.855136521000532	1	0.0318718780185532	11.1205689162718
396	1	99	86	1	36	0	122	1.63466886199967	1	0.0134012457646794	0
397	0	39	9	1	35	0	122	1.22254684499967	0	0.0256881804181792	-22.7135229927238
398	0	79	101	1	38	0	120	0.979095257000154	1	0.0879498467563778	11.0187587334124
399	0	106	53	0	37	0	120	0.720369119999305	1	0.0757598330702566	11.1205689162718
400	1	52	98	1	36	0	120	0.737749296000402	0	0.0532610616478072	-22.4657818420483
401	0	143	10	1	36	0	120	0.727890467000179	1	0.0350752922628149	11.2328909210242
402	1	116	98	1	33	0	120	0.956998703000863	0	0.0775037049989416	-23.2877795890924
403	0	104	67	0	41	0	120	0.613040407999506	1	0.0798127442936272	10.7674714275007
404	1	114	41	0	39	0	120	1.45919235899964	0	0.0434972046390266	-21.8530488315306
405	0	119	46	0	46	0	120	0.6534752940006	1	0.0373889460607817	10.4866337303374
406	0	106	61	1	44	0	120	0.824505284999759	1	0.0725096162155356	10.5818819156885
407	0	8	114	0	42	0	120	0.684672175000742	1	0.0608569895370253	10.6991829678433
408	1	79	91	0	40	0	122	0.725776776000203	1	0.0576220310204791	10.8430184702156
409	1	2	8	0	38	0	122	0.774154669999916	1	0.00738047910292318	0
410	0	34	89	0	36	0	120	0.661131033999482	1	0.106858470502474	11.2328909210242
411	1	78	64	0	34	0	122	0.855907581999418	1	0.0777788395294262	11.4933327992393
412	1	4	116	0	32	0	122	1.1776609919998	1	0.0920716023362159	11.8098710579033
413	0	37	108	0	30	0	120	0.743842777999816	1	0.0345769398036125	12.1947838360194
414	0	88	19	1	28	0	120	0.607426819000466	1	0.100462496671899	12.6637412620617
415	0	48	4	0	26	0	120	0.956968562999464	1	0.011645243243024	0
416	0	89	8	0	24	0	120	0.731734517999939	1	0.000166720153472765	0
417	0	94	104	0	22	0	120	0.996785327999532	1	0.0384139232088025	14.8156460292092
418	1	98	87	1	20	0	120	0.89776607299973	0	0.0477793216549516	-31.8195092369016
419	1	17	52	0	26	0	122	0.690430478000053	1	0.0219942356928554	0
420	1	109	14	1	24	0	122	0.709303700999953	1	0.0215697121257972	0
421	1	144	3	1	22	0	120	0.734503605001009	0	0.027072860168749	-29.6312920584185
422	0	141	22	1	28	0	120	1.02234206200046	1	0.0519479437696774	12.6637412620617
423	1	142	74	0	26	0	122	0.810714809000274	1	0.0450670321830876	13.2371361035193
424	1	149	33	1	24	0	122	1.02273378599966	1	0.0305123294087085	13.942099533704
425	0	34	38	0	22	0	120	0.698416064000412	1	0.0734345501304797	14.8156460292092
426	1	30	118	1	21	0	120	0.908783605000281	0	0.0873950047171409	-30.6621938682482
427	0	110	30	1	26	0	122	0.956393045000368	0	0.0289415812659685	-26.4742722070386
428	0	29	130	1	31	0	120	0.714753239000856	1	0.0679417563083995	11.9928937619321
429	0	95	129	0	29	0	120	0.835127267000644	1	0.0669706580376922	12.4176125654648
430	0	10	47	0	27	0	122	0.92861180699947	0	0.0606017411737281	-25.871752257264
431	0	147	112	1	32	0	120	1.20012187599968	1	0.0718079866666472	11.8098710579033
432	1	6	105	0	31	0	120	1.05378749500051	0	0.0789002750518361	-23.9857875238642
433	1	93	109	1	35	0	120	0.904902782998761	0	0.0440631675648871	-22.7135229927238
434	0	95	57	1	40	0	120	0.896713133999583	1	0.0598442598591292	10.8430184702156
435	1	15	55	0	38	0	120	0.722299492999809	0	0.0747197510497184	-22.0375174668248
436	1	130	37	1	43	0	122	0.69130405100077	1	0.0779390422932249	10.6375143482975
437	0	15	21	1	41	0	120	0.605313214999114	1	0.0629736108330655	10.7674714275007
438	0	67	64	1	40	0	120	1.20050731999982	1	0.076552436561351	10.8430184702156
439	1	139	136	1	38	0	122	0.824893326000165	1	0.0506418012759236	11.0187587334124
440	1	10	33	1	37	0	122	0.682069780999882	1	0.0508569439273813	11.1205689162718
441	0	12	79	1	36	0	120	1.03690803800055	1	0.0132522861769339	0
442	0	86	44	0	34	0	120	0.808557476000715	1	0.0200929171365413	0
443	1	124	106	1	33	0	122	0.70862187900093	1	0.0490089001340044	11.6438897945462
444	0	104	9	0	32	0	120	0.917480969999815	1	0.0479489286948476	11.8098710579033
445	1	128	88	0	30	0	122	0.599182530000689	1	0.0143751879831886	0
446	0	122	2	0	29	0	120	0.899641886000609	1	0.0307221005252163	12.4176125654648
447	1	26	74	1	28	0	120	1.13368125500165	0	0.052882475312724	-25.3274825241235
448	1	90	37	1	32	0	122	0.798586652999802	1	0.0262568493754671	11.8098710579033
449	1	26	3	1	31	0	122	0.842889445000765	1	0.00564490892640417	0
450	1	103	13	0	29	0	122	1.35870936600077	1	0.0382769951310795	12.4176125654648
451	0	2	66	0	28	0	120	0.829822956000498	1	0.0132815397260259	0
452	1	130	118	1	27	0	122	0.834730646000025	1	0.00281696417195422	0
453	0	130	20	1	26	0	120	0.695031014000051	1	0.0966306092760133	13.2371361035193
454	1	3	25	0	25	0	120	1.18338340199989	0	0.0733285734757981	-27.1422747560566
455	1	73	122	1	28	0	122	0.757079712999257	1	0.0124489072794869	0
456	1	79	13	1	27	0	122	1.63609874899885	1	0.00877755302636482	0
457	1	88	51	0	26	0	122	1.0729988639996	1	0.0499328695083716	13.2371361035193
458	0	64	10	0	25	0	120	1.0502112030008	1	0.0574551956816112	13.5711373780283
459	0	37	147	0	24	0	120	0.721447166999496	1	0.048507447315211	13.942099533704
460	0	147	144	1	23	0	122	0.917979125999409	0	0.0233234187646971	-0
461	0	64	150	0	26	0	120	0.789621763000468	1	0.0382273510365319	13.2371361035193
462	1	132	135	1	25	0	120	0.803703781999502	0	0.0469338167270648	-27.1422747560566
463	0	75	25	1	28	0	120	0.824973796999984	1	0.0220766905532995	0
464	1	135	150	1	27	0	122	1.43750841200017	1	0.0398602008776677	12.935876128632
465	0	118	130	0	26	0	120	0.65714011899945	1	0.0777968642004328	13.2371361035193
466	1	45	79	1	25	0	122	0.763491112000338	1	0.0210052199000126	0
467	0	58	76	0	24	0	120	0.739021863000744	1	0.0237190872056428	0
468	1	107	27	0	23	0	122	0.643717254999501	1	0.0266704886889939	14.3549800010502
469	0	20	25	0	22	0	120	1.07817204200001	1	0.053576219018793	14.8156460292092
470	0	126	31	1	21	0	122	1.49547933400027	0	0.0951683556869028	-30.6621938682482
471	1	77	120	0	24	0	122	0.809278582000843	1	0.0411762803330641	13.942099533704
472	0	3	125	0	23	0	122	0.718495583998447	0	0.0274879828533837	-28.7099600021003
473	1	43	148	1	26	0	120	1.4149110620001	0	0.0284563839173907	-26.4742722070386
474	1	75	47	0	28	0	120	1.09153305000109	0	0.0304937906400838	-25.3274825241235
475	0	52	4	1	31	0	120	0.777996780001558	1	0.0285927091004768	11.9928937619321
476	1	122	149	0	30	0	122	0.763354804999835	1	0.0558718650702229	12.1947838360194
477	0	104	99	0	29	0	120	0.753299990001324	1	0.0368702372478364	12.4176125654648
478	1	57	24	1	29	0	120	0.864702453000064	0	0.0110301811515696	-0
479	0	139	143	1	31	0	122	0.892296538000664	0	0.0442921657800875	-23.9857875238642
480	0	86	79	0	34	0	120	0.782041039001342	1	0.0565483811839164	11.4933327992393
481	1	21	3	1	33	0	122	1.22802708699965	1	0.0679488297649089	11.6438897945462
482	0	68	22	1	32	0	120	0.711247732999254	1	0.0765434372255486	11.8098710579033
483	1	141	114	0	31	0	122	0.743943863000823	1	0.0699505898697872	11.9928937619321
484	1	22	46	0	30	0	122	0.735442156001227	1	0.00733420101935956	0
485	1	21	150	0	30	0	120	0.894471752000754	0	0.0106675347937452	-0
486	1	37	91	0	32	0	120	0.857178562999252	0	0.0284861918706051	-23.6197421158065
487	0	62	47	1	35	0	122	0.700215940998532	0	0.0878241373481931	-22.7135229927238
488	1	74	15	1	38	0	122	0.852225157999783	1	0.0467246041244622	11.0187587334124
489	1	60	5	0	37	0	122	0.664635163999264	1	0.0532560769685535	11.1205689162718
490	0	143	5	0	36	0	120	0.650548260000505	1	0.0349460806993802	11.2328909210242
491	1	148	18	0	35	0	120	1.11879441799829	0	0.0247498320722017	-0
492	1	71	13	0	38	0	122	1.07194273599998	1	0.0273034143740442	11.0187587334124
493	1	91	46	0	37	0	122	0.586307965999367	1	0.129029137639125	11.1205689162718
494	0	5	58	0	36	0	120	0.800468345998524	1	0.0322051126707014	11.2328909210242
495	0	81	71	0	35	0	120	0.77346490599848	1	0.0236194715871956	0
496	0	2	13	0	34	0	120	1.1233176500009	1	0.0330399743170944	11.4933327992393
497	0	62	49	1	33	0	120	0.795069464000335	1	0.0303792968339138	11.6438897945462
498	1	86	78	0	32	0	122	0.887821455000449	1	0.0352042101162108	11.8098710579033
499	0	50	94	0	32	0	120	0.731475831000353	1	0.0394744685402876	11.8098710579033
500	1	144	95	1	31	0	120	0.803446129000804	0	0.0827407011993361	-23.9857875238642
