Trial	Gender_Face1	Face1_nb	Face2_nb	Right_left_flip	Nb_Bubbles	Overlap_Target	Response	RT	Accuracy	Simi2Target	Trial_Reward
1	1	13	137	0	40	0	120	3.83289608894847	1	0	0
2	0	127	131	0	37	0	120	4.32942021195777	0	0	0
3	0	73	102	1	45	0	120	2.62649362790398	0	0	0
4	1	111	138	1	53	0	120	2.85479521006346	1	0	0
5	0	37	26	1	50	0	122	0.992738668108359	1	0	0
6	0	120	79	0	48	0	122	1.35810417402536	1	0	0
7	0	23	20	1	46	0	122	1.93289160286076	1	0	0
8	0	30	144	0	44	0	122	1.08510902500711	1	0	0
9	0	45	145	1	42	0	122	1.41527418792248	1	0	0
10	0	14	54	1	40	0	122	2.37048677890562	1	0	0
11	0	99	121	0	38	0	122	1.39329845900647	1	0	0
12	0	129	110	0	36	0	122	2.11826195800677	1	0	0
13	1	92	45	1	34	0	120	1.55852556508034	1	0	0
14	0	15	138	0	32	0	120	0.716700380900875	0	0	0
15	0	117	42	1	38	0	120	1.24532579001971	0	0	0
16	1	128	3	0	44	0	120	0.921576742082834	1	0	0
17	0	136	147	1	42	0	122	1.01741898409091	1	0	0
18	1	148	57	0	40	0	122	1.22173018008471	0	0	0
19	1	12	101	1	46	0	120	1.02699564304203	1	0	0
20	1	126	66	0	44	0	120	1.83097942895256	1	0	0
21	1	107	20	1	42	0	120	0.866871471051127	1	0	0
22	1	102	145	1	41	0	120	1.30868022004142	1	0	0
23	1	34	24	1	39	0	122	0.73390982998535	0	0	0
24	0	119	52	0	44	0	122	1.89286999800242	1	0	0
25	0	23	13	0	42	0	122	1.54182495316491	1	0	0
26	1	87	97	1	41	0	120	0.989562342176214	1	0	0
27	0	51	117	1	39	0	122	0.986611847998574	1	0	0
28	0	84	43	1	38	0	122	0.960001379018649	1	0	0
29	1	65	134	0	36	0	120	0.70281794317998	1	0	0
30	0	55	115	0	35	0	122	1.10398437501863	1	0	0
31	1	15	97	0	33	0	122	0.821236058836803	0	0	0
32	0	81	72	1	38	0	122	0.957374865189195	1	0	0
33	0	27	105	0	36	0	122	0.811783554032445	1	0	0
34	1	125	112	1	35	0	120	0.624589286046103	1	0	0
35	1	79	48	1	33	0	120	0.724592707119882	1	0	0
36	0	67	113	1	32	0	122	1.14018105901778	1	0	0
37	1	23	147	1	31	0	120	0.764587320154533	1	0	0
38	0	52	23	0	29	0	120	0.987414549803361	0	0	0
39	1	110	34	0	33	0	122	0.857232396025211	0	0	0
40	0	139	1	0	37	0	122	0.980178072117269	1	0	0
41	1	58	36	0	36	0	122	0.72141464613378	0	0	0
42	0	90	25	1	40	0	122	0.794471608009189	1	0	0
43	0	26	84	0	39	0	120	1.19120553298853	0	0	0
44	0	149	131	0	43	0	122	0.813366173999384	1	0	0
45	1	77	22	0	41	0	122	1.69757878012024	0	0	0
46	1	112	105	1	45	0	120	0.802719312952831	1	0	0
47	0	30	15	0	44	0	122	0.735568556003273	1	0	0
48	0	43	61	0	43	0	122	1.72741538891569	1	0	0
49	1	63	113	1	41	0	120	0.679407701129094	1	0	0
50	1	35	129	1	40	0	122	0.721443893155083	0	0	0
51	0	15	123	0	44	0	122	0.745113671058789	1	0	0
52	0	150	107	1	42	0	122	0.920713594881818	1	0	0
53	0	62	68	0	41	0	122	1.27382748108357	1	0	0
54	0	23	59	1	40	0	120	1.4509903290309	0	0	0
55	0	53	114	0	44	0	122	1.04620033805259	1	0	0
56	0	55	84	1	42	0	122	0.945390593959019	1	0	0
57	1	73	107	1	41	0	120	1.16879414091818	1	0	0
58	1	52	9	1	40	0	122	0.911285953130573	0	0	0
59	1	131	85	1	44	0	122	1.17602559481747	0	0	0
60	0	26	93	1	47	0	122	0.837411707034335	1	0	0
61	0	93	38	0	46	0	122	0.785206984030083	1	0	0
62	0	20	54	1	45	0	122	1.23907609004527	1	0	0
63	0	106	33	0	44	0	120	0.714533396065235	0	0	0
64	1	89	45	0	47	0	122	1.57082185917534	0	0	0
65	1	9	21	1	50	0	120	0.58482677093707	1	0	0
66	1	71	32	1	49	0	122	0.983534757979214	0	0	0
67	1	48	85	0	52	0	120	0.66862959205173	1	0	0
68	0	2	123	1	51	0	120	0.687738660955802	0	0	0
69	0	77	40	0	54	0	120	1.3765260190703	0	0	0
70	1	31	20	1	57	0	120	0.654443027218804	1	0	0
71	1	9	52	1	56	0	120	0.84196045412682	1	0	0
72	0	141	98	1	55	0	122	0.580646369839087	1	0	0
73	0	24	41	0	54	0	120	1.39094678894617	0	0	0
74	0	125	64	1	57	0	122	1.27270391397178	1	0	0
75	1	44	100	0	56	0	120	0.962426676880568	1	0	0
76	1	52	50	0	55	0	120	0.921391431009397	1	0	0
77	0	149	22	0	54	0	122	0.769316300982609	1	0	0
78	0	23	68	1	53	0	122	0.639986355090514	1	0	0
79	1	112	139	1	52	0	122	0.778874971903861	0	0	0
80	0	88	38	1	55	0	122	0.801253111800179	1	0	0
81	0	138	38	0	54	0	122	0.84566460782662	1	0	0
82	0	140	126	0	53	0	122	0.753055005101487	1	0	0
83	0	115	99	1	52	0	122	0.639516352210194	1	0	0
84	1	21	124	0	51	0	122	0.612213211134076	0	0	0
85	1	100	39	1	54	0	120	0.560455776052549	1	0	0
86	0	53	137	0	53	0	122	0.599616830004379	1	0	0
87	1	40	135	0	52	0	120	1.16448993701488	1	0	0
88	1	96	23	0	52	0	120	0.570564264198765	1	0	0
89	0	113	141	0	51	0	120	1.3685448160395	0	0	0
90	0	69	12	0	53	0	122	0.615240904036909	1	0	0
91	0	31	66	1	52	0	122	1.0036583901383	1	0	0
92	0	100	91	1	52	0	122	1.21694821980782	1	0	0
93	0	68	105	1	51	0	122	0.74944653804414	1	0	0
94	1	67	2	1	50	0	120	0.604023308958858	1	0	0
95	0	91	10	0	49	0	122	0.818024761974812	1	0	0
96	0	48	71	1	48	0	122	0.590046735946089	1	0	0
97	1	49	31	0	47	0	120	0.6517851841636	1	0	0
98	1	43	63	1	47	0	122	0.766768062952906	0	0	0
99	0	134	59	1	49	0	122	0.797062037978321	1	0	0
100	0	69	90	1	48	0	122	0.626975697930902	1	0	0
101	1	145	7	0	47	0	120	1.06838259310462	1	0	0
102	1	133	59	1	44	0	120	2.64296631910838	1	0	0
103	1	32	70	0	42	0	120	0.68650997010991	1	0	0
104	0	150	29	0	39	0	120	0.652984945103526	0	0	0
105	0	114	49	1	47	0	120	2.02731081610546	0	0	0
106	0	104	80	1	54	0	122	0.623714372050017	1	0	0
107	1	132	130	0	52	0	120	0.859469277085736	1	0	0
108	1	132	85	1	50	0	120	0.622891505947337	1	0	0
109	1	65	30	0	48	0	120	0.834220529999584	1	0	0
110	1	25	110	1	46	0	120	0.68627564702183	1	0	0
111	1	69	97	1	44	0	120	0.632304586935788	1	0	0
112	1	55	145	1	42	0	120	0.579579370096326	1	0	0
113	1	30	113	1	39	0	120	1.35400764993392	1	0	0
114	1	70	102	0	37	0	120	0.936909354990348	1	0	0
115	1	25	107	1	35	0	120	0.752204989083111	1	0	0
116	1	2	143	1	33	0	120	0.727165520191193	1	0	0
117	0	99	8	0	31	0	122	0.670857636956498	1	0	0
118	0	47	133	0	29	0	122	0.840708621079102	1	0	0
119	0	68	90	1	27	0	122	0.5722976999823	1	0	0
120	0	78	92	1	25	0	122	0.827020517084748	1	0	0
121	0	29	114	1	23	0	122	1.40691581787542	1	0	0
122	0	114	128	1	22	0	122	0.804036590037867	1	0	0
123	0	88	11	1	20	0	122	0.94105942803435	1	0	0
124	1	78	59	1	18	0	120	0.607212443836033	1	0	0
125	0	101	13	1	16	0	120	0.924077111063525	0	0	0
126	0	142	94	1	22	0	122	0.732373419916257	1	0	0
127	1	121	133	1	20	0	122	1.31690598488785	0	0	0
128	0	50	109	1	25	0	120	0.644892281154171	0	0	0
129	1	54	86	1	30	0	120	1.64839919493534	1	0	0
130	0	12	66	0	28	0	122	0.804156568134204	1	0	0
131	1	62	97	0	27	0	120	0.737580884015188	1	0	0
132	0	54	53	1	25	0	122	0.937267382862046	1	0	0
133	1	110	27	0	24	0	122	0.616614736849442	0	0	0
134	0	24	117	1	28	0	122	0.765097641851753	1	0	0
135	1	61	28	1	27	0	122	0.77921824506484	0	0	0
136	1	49	24	0	32	0	120	0.928512542974204	1	0	0
137	1	143	15	1	30	0	122	0.761260730912909	0	0	0
138	1	58	7	0	35	0	120	0.832020292058587	1	0	0
139	0	90	115	1	33	0	120	0.890277603873983	0	0	0
140	1	69	106	0	38	0	120	0.857418593019247	1	0	0
141	1	117	109	0	36	0	122	0.722563314018771	0	0	0
142	1	149	125	1	40	0	122	1.00849419902079	0	0	0
143	1	63	2	0	45	0	120	0.887680225074291	1	0	0
144	0	75	57	1	43	0	122	0.641905547119677	1	0	0
145	1	43	39	1	42	0	120	0.653144682990387	1	0	0
146	0	112	25	0	41	0	122	1.12809068802744	1	0	0
147	0	45	52	0	39	0	122	0.647819955833256	1	0	0
148	1	22	46	0	38	0	120	1.13165831216611	1	0	0
149	0	87	142	1	37	0	122	0.61842189100571	1	0	0
150	0	58	94	1	35	0	122	0.919091809075326	1	0	0
151	1	85	39	0	34	0	120	0.623842282919213	1	0	0
152	0	95	147	1	33	0	122	0.556687409989536	1	0	0
153	0	74	29	0	32	0	122	1.03458181396127	1	0	0
154	0	84	36	0	30	0	122	0.734642639989033	1	0	0
155	1	116	64	0	29	0	120	0.598278234014288	1	0	0
156	1	27	136	0	28	0	120	0.603314233012497	1	0	0
157	1	60	122	0	27	0	120	0.53621013998054	1	0	0
158	1	61	145	0	26	0	122	0.720745375845581	0	0	0
159	1	21	131	0	29	0	120	0.688784050988033	1	0	0
160	1	149	44	0	28	0	122	0.577821610961109	0	0	0
161	1	134	104	1	31	0	120	0.584399214014411	1	0	0
162	1	6	136	1	30	0	120	0.517531930003315	1	0	0
163	1	20	27	1	29	0	122	0.556475019082427	0	0	0
164	0	28	135	0	32	0	122	0.620711626950651	1	0	0
165	1	2	36	1	31	0	122	0.686828621895984	0	0	0
166	1	65	34	0	34	0	120	0.554953593062237	1	0	0
167	1	145	81	1	33	0	120	0.727287146029994	1	0	0
168	1	22	145	0	32	0	120	0.810346412938088	1	0	0
169	1	58	28	1	31	0	120	0.710386344930157	1	0	0
170	1	94	92	1	30	0	120	0.607786862179637	1	0	0
171	1	107	114	1	29	0	120	0.708766269963235	1	0	0
172	1	23	136	0	28	0	120	0.605091084958985	1	0	0
173	1	91	120	1	27	0	120	0.761642128229141	1	0	0
174	0	139	67	1	26	0	122	0.559826844139025	1	0	0
175	0	1	109	1	25	0	122	1.12695909198374	1	0	0
176	1	72	14	0	24	0	120	0.655166310025379	1	0	0
177	0	78	20	0	23	0	122	0.72990743489936	1	0	0
178	0	129	101	0	22	0	122	0.953582395100966	1	0	0
179	1	92	147	0	22	0	122	1.2496864371933	0	0	0
180	1	140	131	1	24	0	120	0.680609248112887	1	0	0
181	1	46	9	0	23	0	122	1.08617422310635	0	0	0
182	0	9	15	1	26	0	120	0.772182043874636	0	0	0
183	0	89	104	0	29	0	122	0.837221851106733	1	0	0
184	0	78	108	0	28	0	122	0.905765664996579	1	0	0
185	0	71	102	0	27	0	122	0.905895524891093	1	0	0
186	0	70	59	1	26	0	122	1.11467555188574	1	0	0
187	0	65	56	0	25	0	122	0.731658338103443	1	0	0
188	1	77	59	0	24	0	122	0.755814529024065	0	0	0
189	1	135	42	0	27	0	120	0.579275728901848	1	0	0
190	1	67	78	0	26	0	120	0.833249141927809	1	0	0
191	0	145	30	0	25	0	120	0.740099349059165	0	0	0
192	0	138	88	0	28	0	120	1.02015373599716	0	0	0
193	1	12	105	0	30	0	122	1.65669535007328	0	0	0
194	0	43	41	1	33	0	122	0.707783955149353	1	0	0
195	0	66	142	0	32	0	122	0.604184431955218	1	0	0
196	0	74	76	1	31	0	122	0.922038567950949	1	0	0
197	0	69	63	1	30	0	122	1.05739528289996	1	0	0
198	0	120	149	0	29	0	120	1.05314848199487	0	0	0
199	1	54	111	0	32	0	120	0.976869069039822	1	0	0
200	0	5	137	1	31	0	122	1.06276845000684	1	0	0
201	0	91	67	1	30	0	122	1.73125723190606	1	0	0
202	1	26	37	1	27	0	120	0.879728571977466	1	0	0
203	1	118	49	1	25	0	122	1.62635979591869	0	0	0
204	0	116	69	1	33	0	122	0.775942242937163	1	0	0
205	1	18	3	1	30	0	120	1.39802344492637	1	0	0
206	0	7	21	1	28	0	120	2.05070478701964	0	0	0
207	0	18	136	0	35	0	122	0.764582506846637	1	0	0
208	0	54	135	0	33	0	122	0.747483204118907	1	0	0
209	1	110	100	1	31	0	122	0.68313403101638	0	0	0
210	1	26	6	1	37	0	122	0.564185519935563	0	0	0
211	0	14	50	1	43	0	122	1.42663174192421	1	0	0
212	1	37	49	0	41	0	120	0.59933091304265	1	0	0
213	1	122	150	1	39	0	120	1.19357436010614	1	0	0
214	1	75	41	0	38	0	120	1.706363203004	1	0	0
215	0	5	73	1	36	0	122	1.21143300901167	1	0	0
216	1	149	63	1	34	0	122	0.951870172983035	0	0	0
217	1	11	53	1	40	0	122	0.694473242852837	0	0	0
218	0	50	95	1	45	0	122	0.647863996913657	1	0	0
219	0	43	46	1	43	0	122	0.658842341974378	1	0	0
220	0	33	96	1	42	0	120	0.573285215999931	0	0	0
221	1	66	76	0	47	0	120	0.619266516994685	1	0	0
222	0	44	90	0	45	0	122	1.03213607799262	1	0	0
223	1	46	43	1	43	0	122	0.763600953156129	0	0	0
224	0	79	113	0	48	0	122	0.690062551060691	1	0	0
225	1	94	79	0	47	0	122	0.819904351141304	0	0	0
226	0	137	56	0	51	0	122	0.680831575067714	1	0	0
227	0	134	63	1	50	0	122	0.586132783908397	1	0	0
228	0	102	3	0	48	0	122	0.703639171784744	1	0	0
229	1	137	67	1	47	0	120	0.688456995179877	1	0	0
230	1	96	68	0	45	0	120	0.61020821495913	1	0	0
231	0	41	34	0	44	0	122	0.838188685942441	1	0	0
232	0	6	127	0	43	0	122	0.737923000007868	1	0	0
233	1	43	119	1	41	0	120	0.529598129913211	1	0	0
234	1	44	146	1	40	0	122	0.822038657963276	0	0	0
235	1	142	41	1	44	0	120	0.861548057990149	1	0	0
236	0	42	135	0	43	0	122	0.680294174002483	1	0	0
237	0	95	85	0	41	0	122	0.527134215924889	1	0	0
238	1	90	76	1	40	0	122	0.689956916961819	0	0	0
239	1	149	8	1	44	0	122	0.579650327097625	0	0	0
240	1	20	29	1	48	0	120	1.07399694691412	1	0	0
241	0	90	95	1	47	0	122	1.06815825705417	1	0	0
242	0	78	15	0	45	0	122	0.862070416100323	1	0	0
243	1	117	82	0	44	0	120	0.833210183074698	1	0	0
244	1	130	96	1	43	0	120	1.13228739798069	1	0	0
245	0	134	4	1	42	0	122	0.892325098160654	1	0	0
246	0	101	39	0	40	0	120	0.774005645886064	0	0	0
247	0	79	39	1	44	0	122	0.763444032985717	1	0	0
248	0	124	6	1	43	0	122	0.634238702012226	1	0	0
249	0	75	24	0	42	0	122	0.701620733132586	1	0	0
250	0	24	115	1	41	0	122	1.09474354819395	1	0	0
251	1	108	22	1	39	0	120	0.592131455196068	1	0	0
252	1	40	43	0	38	0	120	0.629228858975694	1	0	0
253	1	79	65	0	37	0	120	0.945385830942541	1	0	0
254	1	1	137	0	36	0	120	0.824508824851364	1	0	0
255	0	125	118	0	35	0	120	1.00537608517334	0	0	0
256	1	8	34	1	38	0	120	0.601972070988268	1	0	0
257	1	26	139	1	37	0	120	0.558504962129518	1	0	0
258	0	81	34	1	36	0	122	0.685674217995256	1	0	0
259	0	109	51	1	35	0	122	0.799273398937657	1	0	0
260	1	137	62	0	34	0	120	0.77178188203834	1	0	0
261	1	18	72	0	33	0	120	0.730667688185349	1	0	0
262	1	30	30	0	32	0	122	1.27506600599736	0	0	0
263	0	68	57	0	35	0	122	0.677287694066763	1	0	0
264	1	121	52	1	34	0	120	1.01497852499597	1	0	0
265	0	37	113	1	33	0	122	0.955274314852431	1	0	0
266	1	42	80	1	32	0	120	1.27419610996731	1	0	0
267	0	70	120	1	31	0	122	1.02044553100131	1	0	0
268	1	61	65	0	30	0	122	0.761175584979355	0	0	0
269	1	63	133	0	33	0	120	0.655706231947988	1	0	0
270	1	15	72	0	32	0	122	0.85817945189774	0	0	0
271	0	131	141	1	35	0	122	0.596533315023407	1	0	0
272	0	110	65	1	34	0	122	0.713641570881009	1	0	0
273	0	28	141	0	33	0	122	0.882613750174642	1	0	0
274	0	42	92	0	32	0	122	0.916372623993084	1	0	0
275	1	72	44	0	31	0	120	0.565376610029489	1	0	0
276	0	35	33	1	30	0	122	0.787989352131262	1	0	0
277	1	7	84	1	30	0	120	0.545441631926224	1	0	0
278	0	88	71	0	29	0	122	0.696350529091433	1	0	0
279	0	7	51	0	28	0	122	0.689671616069973	1	0	0
280	1	142	112	0	27	0	120	0.770932803861797	1	0	0
281	0	67	135	0	26	0	122	0.657585890032351	1	0	0
282	1	136	129	1	25	0	122	1.3564060900826	0	0	0
283	1	113	134	1	28	0	122	0.713193209143355	0	0	0
284	0	89	108	1	30	0	122	0.70686724386178	1	0	0
285	1	125	89	0	29	0	120	0.610878898063675	1	0	0
286	0	121	53	1	29	0	122	0.768115003826097	1	0	0
287	1	111	112	1	28	0	120	1.12649273010902	1	0	0
288	0	8	133	1	27	0	122	0.655015431111678	1	0	0
289	0	87	109	1	26	0	122	0.713940717978403	1	0	0
290	0	92	28	1	26	0	122	0.570598287973553	1	0	0
291	1	41	133	0	25	0	122	1.12798348581418	0	0	0
292	1	68	46	0	27	0	120	0.664018034003675	1	0	0
293	0	107	25	0	26	0	122	0.714764493983239	1	0	0
294	0	23	14	1	26	0	122	0.899436912033707	1	0	0
295	1	53	57	1	25	0	120	0.745349555043504	1	0	0
296	1	33	8	1	24	0	122	0.795800607884303	0	0	0
297	0	54	69	0	26	0	122	0.681639270158485	1	0	0
298	1	90	72	1	26	0	122	0.627647673944011	0	0	0
299	1	7	107	0	28	0	120	0.635723863961175	1	0	0
300	0	106	104	1	27	0	122	0.881507268873975	1	0	0
