Trial	Gender_Face1	Face1_nb	Face2_nb	Right_left_flip	Nb_Bubbles	Overlap_Target	Response	RT	Accuracy	Simi2Target	Trial_Reward
1	0	73	90	1	50	0	120	3.9912344540935	1	0.0477343737587273	10.3479805145876
2	1	12	13	0	47	0	122	0.459800276905298	1	0.0901292069999729	10.4461306368389
3	1	91	71	0	43	0	122	0.553000835934654	1	0.0280837888010038	10.637423161882
4	1	87	76	1	40	0	120	0.89387643802911	0	0.0852967998213846	-21.6855946582863
5	1	11	103	0	50	0	120	0.74155084695667	0	0.0414157061670531	-20.6959610291753
6	0	28	31	0	60	0	120	1.04775687493384	1	0.0757406811474703	10.1858065600096
7	0	129	93	0	57	0	120	0.820205160183832	1	0.00856995859705764	0
8	0	145	127	0	54	0	120	1.44506398704834	1	0.0503835257148088	10.2595066441038
9	1	107	136	1	51	0	122	0.479706141166389	1	0.132977210926843	10.3219079907061
10	1	142	22	1	48	0	120	0.983783825999126	0	0.0303570553064517	-20.8195170338857
11	0	76	67	0	57	0	120	0.53518077894114	1	0.0942439410904139	10.2158520182858
12	0	50	24	1	54	0	120	0.695932949893177	1	0.0445176728171509	10.2595066441038
13	0	128	20	1	52	0	120	0.797548051923513	1	0.077116977422983	10.2986470504362
14	1	64	48	0	49	0	122	0.580065227113664	1	0.0347438538176335	10.3771576419477
15	0	129	51	0	47	0	120	0.733104599872604	1	0.0304123254789099	10.4461306368389
16	1	109	48	0	44	0	122	0.540181539021432	1	0.0648067292551271	10.5818294796154
17	0	111	43	0	42	0	120	0.814633651869372	1	0.0862216437141435	10.6990507940636
18	1	33	143	0	39	0	120	0.772452600067481	0	0.035260746548891	-21.8525102860517
19	1	37	105	0	47	0	122	0.748941097874194	1	0.124379989024183	10.4461306368389
20	0	147	114	0	45	0	120	0.498971180990338	1	0.0421707206646069	10.5317356711684
21	1	82	138	0	42	0	122	0.670798137085512	1	0.0671205180450902	10.6990507940636
22	1	60	119	0	40	0	122	0.50719237793237	1	0.0624606485753059	10.8427973291431
23	0	115	50	1	38	0	122	1.45874187187292	0	0.0391256734710394	-22.0368775706555
24	0	43	135	1	44	0	120	0.424687723862007	1	0.0603952010197719	10.5818294796154
25	0	100	24	1	42	0	120	0.510843161959201	1	0.00270784381914364	0
26	0	126	62	1	40	0	120	0.795050411950797	1	0.0675132667248193	10.8427973291431
27	0	138	123	0	38	0	120	0.572461475851014	1	0.0826726450966958	11.0184387853277
28	1	123	114	1	36	0	122	0.565884460927919	1	0.0751445248189605	11.2324616019804
29	1	146	32	1	34	0	120	0.467729333788157	0	0.0219349675607063	-0
30	0	99	10	0	40	0	120	0.786639329977334	1	0.0350968468000728	10.8427973291431
31	1	38	125	0	38	0	122	0.581193269928917	1	0.0240306329745455	0
32	0	73	18	1	36	0	120	1.05440249899402	1	0.0705208443423007	11.2324616019804
33	0	48	62	0	34	0	120	0.701833053026348	1	0.0247092225070651	0
34	1	150	60	0	32	0	120	1.41355651803315	0	0.0575119711838799	-23.61837479229
35	0	25	99	0	38	0	120	1.02125249407254	1	0.0533972404132851	11.0184387853277
36	0	148	56	1	36	0	120	0.691781188128516	1	0.10058415177674	11.2324616019804
37	0	88	117	0	34	0	120	0.447317505953833	1	0.0294112525416648	11.4927826373301
38	0	16	138	1	32	0	120	1.02656683395617	1	0.0298960969997501	11.809187396145
39	0	82	126	1	31	0	120	0.815811177017167	1	0.0829166034969846	11.9921381276628
40	0	143	130	1	29	0	120	0.805100774858147	1	0.0287293809941222	12.4167012966934
41	1	67	83	1	27	0	122	0.748918345896527	1	0.062658653584475	12.9347914455904
42	1	116	107	1	25	0	122	0.732403578003868	1	0.0601114167709832	13.5698579813862
43	0	37	61	0	24	0	120	0.59657293302007	1	0.0394353694743101	13.9407133208548
44	1	91	81	0	22	0	122	0.622107484843582	1	0.0577353268761884	14.8140232675861
45	1	29	133	1	20	0	122	0.657151628052816	1	0.0174881484530539	0
46	1	40	77	0	19	0	120	0.774851030204445	0	0.0629353923784437	-33.1195914505591
47	1	135	102	0	24	0	122	1.35755011811852	1	0.0301245974575951	13.9407133208548
48	1	26	93	0	22	0	122	0.378578413976356	1	0.0828622126745932	14.8140232675861
49	0	129	3	1	20	0	120	0.706423884024844	1	3.1244112941807e-11	0
50	1	73	67	1	19	0	122	0.879097810015082	1	0.0676809144460732	16.5597957252796
51	0	37	110	0	17	0	120	0.561781523982063	1	0.0469561528059399	18.1371688126158
52	0	140	121	1	16	0	122	0.826381223974749	0	0.040892763364027	-38.1955121712537
53	1	141	51	1	21	0	120	0.645478924037889	0	0.0199095015537073	-0
54	0	98	18	1	25	0	122	1.19576624105684	0	0.108723669302815	-27.1397159627724
55	1	71	54	1	30	0	120	0.616949584102258	0	0.0280801828690762	-24.387904858673
56	0	133	85	0	34	0	120	0.726251438027248	1	0.0325503103406392	11.4927826373301
57	1	122	97	0	33	0	122	0.784378252923489	1	0.0226674893457424	0
58	1	55	6	1	31	0	122	0.672005506930873	1	0.0581998813828161	11.9921381276628
59	0	17	125	0	30	0	120	0.735824858071283	1	0.0813650248746211	12.1939524293365
60	0	138	66	0	28	0	122	1.30771655985154	0	0.0523411201582594	-25.325491402654
61	1	13	144	1	32	0	120	0.845348636852577	0	0.0159865751163545	-0
62	1	22	131	1	37	0	122	0.633297988912091	1	0.123825442543932	11.1201956546806
63	1	121	26	0	35	0	120	1.02740014297888	0	0.063392367040406	-22.7125465123144
64	1	122	97	1	40	0	122	0.641687588999048	1	0.0622866295234177	10.8427973291431
65	0	132	101	0	38	0	122	0.42318433499895	0	0.0461629313556568	-22.0368775706555
66	0	75	122	0	42	0	120	0.779774206923321	1	0.0730957093630685	10.6990507940636
67	0	103	78	1	41	0	120	0.940646482165903	1	0.0305881051516885	10.7672959599128
68	0	54	120	1	39	0	120	0.883108759997413	1	0.0378782420657656	10.9262551430258
69	1	129	10	0	38	0	122	0.558972628088668	1	0.0563567927496287	11.0184387853277
70	1	15	89	1	37	0	120	1.01777860592119	0	0.0458707955973109	-22.2403913093613
71	0	129	79	0	41	0	122	0.726866573095322	0	0.0891837771214563	-21.5345919198256
72	1	68	67	1	45	0	120	0.35159563482739	0	0.0440810996108573	-21.0634713423368
73	1	140	145	1	49	0	122	0.694986921967939	1	0.0595513408135824	10.3771576419477
74	1	149	76	0	47	0	120	0.868270665872842	0	0.0280699651986041	-20.8922612736778
75	0	50	40	1	51	0	120	1.05520385317504	1	0.0758905076230198	10.3219079907061
76	0	47	103	1	50	0	120	0.713795602088794	1	0.0586686836373201	10.3479805145876
77	1	69	23	1	49	0	122	0.645499445032328	1	0.0568308871587653	10.3771576419477
78	1	6	8	0	48	0	122	0.689827464986593	1	0.0467770672907864	10.4097585169429
79	1	131	39	1	46	0	122	0.891453436808661	1	0.0797115232214162	10.4866523497239
80	1	96	38	1	45	0	122	0.464276772923768	1	0.13881874772848	10.5317356711684
81	0	12	146	1	44	0	120	1.33206774806604	1	0.0668916596040541	10.5818294796154
82	0	149	37	1	43	0	120	0.565298493020236	1	0.0651624503952401	10.637423161882
83	0	149	38	0	41	0	120	0.467984546907246	1	0.0448406828813876	10.7672959599128
84	0	99	98	0	40	0	120	0.696559948148206	1	0.0976188824131481	10.8427973291431
85	1	57	87	0	39	0	122	0.579672686988488	1	0.0545243420194331	10.9262551430258
86	0	72	128	0	38	0	120	0.571233828086406	1	0.0586940285082983	11.0184387853277
87	1	148	13	1	37	0	120	0.640255406033248	0	0.0420274809805697	-22.2403913093613
88	1	29	108	0	40	0	120	0.84780282410793	0	0.119655241913688	-21.6855946582863
89	1	24	74	0	44	0	122	0.738136185100302	1	0.056351746616924	10.5818294796154
90	0	76	124	1	42	0	120	0.490761675173417	1	0.0697387001578156	10.6990507940636
91	0	85	88	1	41	0	120	0.599837286164984	1	0.0377314567511393	10.7672959599128
92	1	9	133	0	40	0	122	0.805567266186699	1	0.0778462227285563	10.8427973291431
93	0	150	39	0	39	0	120	0.553984199184924	1	0.0739823739624548	10.9262551430258
94	0	86	39	0	38	0	120	1.13023348920979	1	0.047252031764344	11.0184387853277
95	1	48	58	0	37	0	122	1.70885561103933	1	0.0408092750823298	11.1201956546806
96	1	131	66	1	36	0	122	0.847641956061125	1	0.0540657313676319	11.2324616019804
97	1	30	96	1	35	0	120	1.05671110493131	0	0.0484629492505462	-22.7125465123144
98	0	101	128	1	38	0	122	0.732500267913565	0	0.0463718636908848	-22.0368775706555
99	1	34	99	1	41	0	122	0.647103970870376	1	0.0908348058233515	10.7672959599128
100	0	121	23	0	40	0	120	0.482945875963196	1	0.0720306694031876	10.8427973291431
101	0	62	93	1	39	0	120	1.24780779494904	1	0.0504071583908439	10.9262551430258
102	0	140	93	0	36	0	120	0.903086548903957	1	0.0485713467387868	11.2324616019804
103	0	82	10	0	34	0	120	0.640594132943079	1	0.093992113133977	11.4927826373301
104	1	139	32	0	31	0	122	0.625601092120633	1	0.0249857516699192	0
105	0	109	132	1	29	0	120	0.945098656928167	1	0.0537254848636157	12.4167012966934
106	1	61	25	1	26	0	120	0.465145880822092	0	0.0263619179931905	-26.4719139901907
107	0	41	112	0	34	0	120	0.883922215085477	1	0.0231971634577361	0
108	0	86	81	0	32	0	120	1.24965135683306	1	0.060746833039298	11.809187396145
109	0	137	129	1	30	0	120	0.53074183803983	1	0.0430215563017309	12.1939524293365
110	1	98	16	0	27	0	122	0.577350687934086	1	0.054876586051212	12.9347914455904
111	0	71	115	0	25	0	122	0.608747598016635	0	0.0165043435902587	-0
112	1	49	133	1	32	0	122	0.761274194112048	1	0.0470526176944942	11.809187396145
113	1	118	77	1	30	0	120	1.14213282801211	0	5.46743898798674e-05	-0
114	0	98	112	0	36	0	120	0.760010135825723	1	0.055259288579578	11.2324616019804
115	1	131	63	0	34	0	122	0.517311768140644	1	0.0443664718271804	11.4927826373301
116	1	112	64	1	32	0	122	0.614808297017589	1	0.110563564465424	11.809187396145
117	0	50	53	0	30	0	120	0.671924388967454	1	0.0689409596392937	12.1939524293365
118	1	132	28	1	28	0	122	0.529437036020681	1	0.0704784874852455	12.662745701327
119	1	65	23	0	26	0	120	0.68977775098756	0	0.0270191047689862	-26.4719139901907
120	1	111	76	0	32	0	122	0.624055990949273	1	0.0671467664281987	11.809187396145
121	1	70	66	1	30	0	122	0.594449484022334	1	0.0268802170820768	12.1939524293365
122	1	148	77	1	29	0	120	0.473733758088201	0	0.0671956847236419	-24.8334025933867
123	0	106	50	1	34	0	120	0.732967357849702	1	0.0247460194683445	0
124	0	56	10	0	32	0	122	0.790196418995038	0	0.0220804207302573	-0
125	0	114	14	1	37	0	122	0.549393441062421	0	0.0780521705127385	-22.2403913093613
126	0	58	45	1	43	0	120	0.481620128033683	1	0.0420393413538686	10.637423161882
127	1	150	90	0	41	0	120	0.646854306804016	0	0.0154703510935767	-0
128	0	29	100	0	46	0	120	0.883090427145362	1	0.0853120633776322	10.4866523497239
129	0	97	139	0	44	0	120	0.516427922062576	1	0.0870497753480566	10.5818294796154
130	1	129	19	1	43	0	122	0.414944171207026	1	0.0447481271118694	10.637423161882
131	0	143	134	1	41	0	120	0.637784889899194	1	0.0615354196130692	10.7672959599128
132	1	14	4	0	40	0	122	1.04925630893558	1	0.0425879130863686	10.8427973291431
133	1	4	42	0	38	0	122	0.604300931096077	1	0.0756550117310571	11.0184387853277
134	1	52	67	0	37	0	120	0.812377898022532	0	0.028621720455476	-22.2403913093613
135	1	8	138	1	41	0	122	0.419269046047702	1	0.0492825775362984	10.7672959599128
136	1	130	62	0	40	0	122	0.617206564871594	1	0.076776202137991	10.8427973291431
137	1	24	111	1	38	0	122	0.8373822059948	1	0.0728466132090649	11.0184387853277
138	1	92	82	1	37	0	122	0.531973829958588	1	0.0511448876317461	11.1201956546806
139	1	104	76	0	36	0	122	0.475046221166849	1	0.0378300310578697	11.2324616019804
140	0	45	79	0	34	0	120	0.471809004899114	1	0.0288549152657027	11.4927826373301
141	1	138	86	0	33	0	122	0.523117574164644	1	0.0724556700049112	11.6432745528948
142	1	75	112	0	31	0	122	0.438581763999537	1	0.0650378521538837	11.9921381276628
143	0	22	118	1	30	0	120	0.545704101910815	1	0.025912146071584	12.1939524293365
144	0	148	118	1	29	0	120	0.643716024933383	1	0.0887255297171964	12.4167012966934
145	0	63	11	0	28	0	122	1.27881029318087	0	0.0906057781510684	-25.325491402654
146	1	128	20	0	31	0	122	0.585885920096189	1	0.122362635334251	11.9921381276628
147	0	25	90	1	30	0	120	0.633940921165049	1	0.049067644059724	12.1939524293365
148	0	67	131	0	29	0	120	0.983582169050351	1	0.0658414848831098	12.4167012966934
149	1	45	27	1	28	0	122	0.896069246111438	1	0.0306861848421797	12.662745701327
150	1	44	9	1	27	0	120	0.691197881940752	0	0.0414764438880193	-25.8695828911809
151	1	4	114	0	30	0	122	0.534090615110472	1	0.043957184770606	12.1939524293365
152	0	51	93	0	29	0	120	0.558357263915241	1	0.0520345292175733	12.4167012966934
153	1	72	60	0	28	0	122	0.694496419979259	1	0.12309950292036	12.662745701327
154	0	52	16	0	27	0	122	0.582684820052236	0	0.0729897704745993	-25.8695828911809
155	0	1	104	1	30	0	120	0.511356698116288	1	0.0412964533947083	12.1939524293365
156	0	131	129	0	29	0	120	0.39734058897011	1	0.0216595559537796	0
157	0	39	1	1	28	0	120	1.06272763502784	1	0.0172373876511213	0
158	1	24	34	0	27	0	120	0.658004140015692	0	0.0214211958786835	-0
159	0	8	110	0	30	0	120	1.42186836386099	1	0.0839306519029662	12.1939524293365
160	0	59	111	0	29	0	120	0.502953601069748	1	0.0514390520321769	12.4167012966934
161	0	6	99	1	28	0	120	0.514272103086114	1	0.081619399047739	12.662745701327
162	1	39	41	0	27	0	122	1.01978161698207	1	0.0638026713606166	12.9347914455904
163	1	50	59	0	26	0	122	0.467765947105363	1	0.0488845864835683	13.2359569950953
164	1	50	122	1	25	0	120	0.494767013005912	0	0.0583704803492442	-27.1397159627724
165	1	45	131	1	28	0	120	0.585916772950441	0	0.0379229890291198	-25.325491402654
166	0	101	68	1	31	0	122	0.431517622899264	0	0.0534735622755039	-23.9842762553256
167	1	87	115	0	34	0	120	0.606455659959465	0	0.0267313893771373	-22.9855652746603
168	0	29	147	0	37	0	120	0.866746529005468	1	0.0149748233582295	0
169	0	17	44	0	36	0	122	0.90302795288153	0	0.0529805917858912	-22.4649232039609
170	0	1	78	1	39	0	122	1.04839466884732	0	0.068553608061387	-21.8525102860517
171	0	74	18	1	43	0	120	1.0184575531166	1	0.0523381217189563	10.637423161882
172	0	6	45	0	42	0	120	1.28140694298781	1	0.0712995297015404	10.6990507940636
173	1	8	79	1	41	0	122	1.27812834200449	1	0.0412174494049469	10.7672959599128
174	1	18	113	0	40	0	122	0.561765183927491	1	0.0703028371350105	10.8427973291431
175	0	102	59	1	39	0	122	0.832772040972486	0	0.0165369561545845	-0
176	1	77	95	1	41	0	122	0.965579431969672	1	0.040426403482164	10.7672959599128
177	0	16	79	1	41	0	120	0.805754140019417	1	0.0326686015544496	10.7672959599128
178	1	95	118	1	40	0	122	1.04502601688728	1	0.0783838015877791	10.8427973291431
179	0	22	106	0	39	0	120	0.881985963089392	1	0.082334056859191	10.9262551430258
180	1	97	54	1	38	0	122	1.06938715092838	1	0.0414782545537374	11.0184387853277
181	0	132	34	0	37	0	120	0.575993774924427	1	0.0706291759886054	11.1201956546806
182	0	82	125	1	36	0	120	0.750915598124266	1	0.0447745076630537	11.2324616019804
183	0	46	51	0	35	0	120	0.504724832018837	1	0.0654402245001188	11.3562732561572
184	0	133	55	1	34	0	120	0.531360894907266	1	0.0809075535188654	11.4927826373301
185	0	93	68	0	33	0	120	0.387003700016066	1	0.0388214046167104	11.6432745528948
186	0	8	104	0	32	0	120	0.635889081982896	1	0.0389979203900397	11.809187396145
187	1	97	146	1	31	0	122	0.58523421199061	1	0.015852508194893	0
188	0	109	91	0	31	0	122	0.944098085863516	0	0.064715900868048	-23.9842762553256
189	0	82	96	1	33	0	120	0.520176340825856	1	0.0189186456618189	0
190	0	60	82	1	32	0	120	0.633705141954124	1	0.0423340539088407	11.809187396145
191	1	79	13	0	31	0	122	0.594599832082167	1	0.0207036017292189	0
192	1	45	61	1	31	0	120	0.683647932019085	0	0.0848570370744682	-23.9842762553256
193	1	125	133	0	33	0	122	0.578448344022036	1	0.00637423842681399	0
194	1	61	123	1	32	0	122	1.19622484897263	1	0.118010195559964	11.809187396145
195	1	44	101	1	32	0	120	1.70738634490408	0	0.0647961262231698	-23.61837479229
196	1	50	23	0	34	0	120	1.04579140408896	0	0.0348852551280945	-22.9855652746603
197	1	93	146	1	36	0	122	0.779051527148113	1	0.0525549055764893	11.2324616019804
198	0	116	93	1	36	0	120	1.04217934096232	1	0.0678932551220844	11.2324616019804
199	1	144	46	1	35	0	122	0.581655756104738	1	0.0467146849601796	11.3562732561572
200	1	96	68	0	34	0	120	0.955237654037774	0	0.0260829718553021	-22.9855652746603
201	0	78	18	1	36	0	120	1.09427820402198	1	0.0857218562849312	11.2324616019804
202	1	135	123	0	33	0	122	0.741820801049471	1	0.087646065792682	11.6432745528948
203	1	6	133	0	31	0	120	1.87772637419403	0	0.0285184683372428	-23.9842762553256
204	0	119	76	0	39	0	120	1.06273030210286	1	0.0450861578687442	10.9262551430258
205	0	114	28	0	36	0	120	0.752416755072773	1	0.0417157414422855	11.2324616019804
206	1	12	27	1	34	0	120	1.25927433604375	0	0.077236157122324	-22.9855652746603
207	1	84	66	1	41	0	122	1.20577329304069	1	0.0129534062018955	0
208	1	100	11	1	39	0	122	1.43702835100703	1	0.0724060936844701	10.9262551430258
209	1	61	150	1	37	0	122	0.504446699982509	1	0.0498377920439208	11.1201956546806
210	0	41	31	0	35	0	120	0.715403542853892	1	0.0552678588438222	11.3562732561572
211	1	112	147	1	33	0	120	1.19557054387406	0	0.0705603346724217	-23.2865491057896
212	1	112	102	0	39	0	122	0.596025007078424	1	0.0613737969258575	10.9262551430258
213	1	79	96	1	37	0	122	1.37125400803052	1	0.0542717927604505	11.1201956546806
214	1	74	72	1	35	0	122	1.21106071886607	1	0.0717476094493905	11.3562732561572
215	1	119	105	1	33	0	120	0.743987662019208	0	0.0197405961233511	-0
216	1	136	76	1	39	0	122	0.791941979900002	1	0.0380793452461306	10.9262551430258
217	0	103	67	1	37	0	122	0.566268624970689	0	0.0554762425867583	-22.2403913093613
218	1	127	28	0	42	0	122	0.670610430883244	1	0.0485303550122188	10.6990507940636
219	0	66	4	1	41	0	120	1.23235548497178	1	0.051686007044324	10.7672959599128
220	1	40	58	0	39	0	122	0.911140477983281	1	0.0714066583433809	10.9262551430258
221	1	34	23	0	37	0	120	0.655822547152638	0	0.0609090095720826	-22.2403913093613
222	0	125	23	0	42	0	120	0.901431499049067	1	0.0362405126711127	10.6990507940636
223	0	52	111	1	41	0	120	3.88961668289267	1	0.0827361241219735	10.7672959599128
224	0	24	46	1	39	0	122	0.683972945902497	0	0.0254625510925846	-21.8525102860517
225	1	58	93	0	44	0	120	0.620983457891271	0	0.0249703863520037	-0
226	1	24	132	0	48	0	122	0.646882947999984	1	0.051827589137171	10.4097585169429
227	0	35	30	0	47	0	120	0.672701488947496	1	0.101194143169427	10.4461306368389
228	1	115	94	0	45	0	122	0.588175070937723	1	0.0647017427582289	10.5317356711684
229	1	71	63	1	44	0	120	0.730168383102864	0	0.0626545858365656	-21.1636589592308
230	0	83	127	0	48	0	122	0.46125574503094	0	0.0607068167441621	-20.8195170338857
231	1	78	54	0	53	0	122	2.32999933208339	1	0.0784169190228987	10.2779287964151
232	1	95	6	1	51	0	122	0.587417728966102	1	0.0835462536419316	10.3219079907061
233	0	16	2	0	50	0	120	0.780239429092035	1	0.0735395025873432	10.3479805145876
234	1	14	91	0	48	0	122	0.576660210965201	1	0.0171415023851627	0
235	1	46	105	1	47	0	120	0.600523252040148	0	0.095814365445146	-20.8922612736778
236	0	126	127	1	51	0	120	1.0301415049471	1	0.0554688990073237	10.3219079907061
237	1	100	133	0	50	0	122	2.12322943285108	1	0.0515517409498671	10.3479805145876
238	0	101	36	1	48	0	120	0.931437968974933	1	0.0919874904150334	10.4097585169429
239	1	93	34	1	47	0	122	0.526089712046087	1	0.0472037355339157	10.4461306368389
240	0	1	99	0	46	0	122	0.697273768950254	0	0.041344197489233	-20.9733046994479
241	1	97	18	0	50	0	122	0.492478088010103	1	0.0637803322379537	10.3479805145876
242	0	105	123	1	49	0	120	1.14151144283824	1	0.0533389954129665	10.3771576419477
243	1	15	100	1	47	0	122	0.751085507217795	1	0.0761425535770036	10.4461306368389
244	1	125	108	1	46	0	120	0.853945669950917	0	0.103881164707246	-20.9733046994479
245	0	54	100	0	50	0	122	0.634675601962954	0	0.054914657916373	-20.6959610291753
246	0	94	111	1	53	0	120	1.34519194695167	1	0.0833078348997252	10.2779287964151
247	1	16	67	1	52	0	122	0.968267379095778	1	0.0374042500433345	10.2986470504362
248	0	147	54	0	51	0	120	0.633876156061888	1	0.0845532854325276	10.3219079907061
249	1	65	77	1	50	0	122	0.516989212017506	1	0.0281753540730973	10.3479805145876
250	1	65	70	0	49	0	122	0.534985196078196	1	0.0676883896741565	10.3771576419477
251	1	62	92	0	47	0	122	0.525962607003748	1	0.0487261118337592	10.4461306368389
252	1	86	101	0	46	0	120	0.90520672686398	0	0.0287444352226618	-20.9733046994479
253	0	95	25	1	50	0	120	1.1074552978389	1	0.0974047735492207	10.3479805145876
254	0	108	133	1	49	0	120	0.773361497092992	1	0.0881229895069104	10.3771576419477
255	1	22	57	1	48	0	120	0.804890290135518	0	0.0230918458168929	-0
256	0	42	75	0	51	0	120	0.933570360997692	1	0.114621802164086	10.3219079907061
257	1	120	37	1	50	0	120	0.740042790072039	0	0.052131040338816	-20.6959610291753
258	1	3	27	0	53	0	122	1.11039656400681	1	0.113541118227919	10.2779287964151
259	1	58	53	1	52	0	122	0.535108183976263	1	0.0623940394159164	10.2986470504362
260	0	128	68	0	51	0	122	0.456353605957702	0	0.0630098299191016	-20.6438159814122
261	0	49	127	0	54	0	120	1.4919773559086	1	0.0860078786122965	10.2595066441038
262	0	95	105	1	53	0	120	0.768831689143553	1	0.0942583852432285	10.2779287964151
263	0	118	69	1	52	0	120	0.696417700033635	1	0.075611615002342	10.2986470504362
264	1	137	15	0	51	0	122	1.78436740301549	1	0.0321759254078545	10.3219079907061
265	0	27	5	1	50	0	122	0.520903618074954	0	0.137442625122645	-20.6959610291753
266	1	12	81	1	53	0	120	0.617841555038467	0	0.0608742107491284	-20.5558575928303
267	1	30	57	0	56	0	122	0.472605518065393	1	0.0912994777547851	10.2286661297955
268	0	73	43	0	55	0	120	1.14624792989343	1	0.0415776153973852	10.2431546751599
269	1	100	32	0	54	0	122	0.981911567039788	1	0.0565682083254447	10.2595066441038
270	1	97	60	1	53	0	122	1.24476707284339	1	0.0808001042865483	10.2779287964151
271	0	137	139	1	52	0	120	0.528802048182115	1	0.0554365683319332	10.2986470504362
272	1	21	147	1	51	0	122	0.811058745952323	1	0.0776713377268588	10.3219079907061
273	1	82	54	1	50	0	122	1.64946270897053	1	0.0553947363192069	10.3479805145876
274	1	142	67	1	49	0	122	0.550059087108821	1	0.0471456666839979	10.3771576419477
275	0	10	10	0	48	0	120	0.966383337043226	1	0.0772534336331713	10.4097585169429
276	0	57	39	0	47	0	120	0.525924699148163	1	0.0297873424013789	10.4461306368389
277	0	113	140	1	46	0	122	0.550798320909962	0	0.0504197042925046	-20.9733046994479
278	0	92	133	0	49	0	120	0.589795632986352	1	0.0976971980239676	10.3771576419477
279	0	139	81	0	48	0	120	0.694975931895897	1	0.0684993318043836	10.4097585169429
280	0	119	19	0	47	0	120	0.577795139979571	1	0.118836478409295	10.4461306368389
281	0	130	50	1	47	0	120	0.544978417921811	1	0.0933162430562956	10.4461306368389
282	1	94	80	0	46	0	122	0.802076044026762	1	0.0715313573106184	10.4866523497239
283	0	39	22	1	45	0	120	0.988165004178882	1	0.0482417051712935	10.5317356711684
284	1	128	69	0	44	0	122	0.714459181996062	1	0.0707075780885056	10.5818294796154
285	0	93	9	0	43	0	120	0.475359763018787	1	0.0587252503574953	10.637423161882
286	1	60	78	0	42	0	122	0.433135099010542	1	0.034698828110883	10.6990507940636
287	0	99	95	0	42	0	120	0.452333031920716	1	0.0318246233121418	10.6990507940636
288	0	3	115	0	41	0	122	0.565941481851041	0	0.0840126846658116	-21.5345919198256
289	0	86	100	0	43	0	120	0.486200059996918	1	0.0389111521257834	10.637423161882
290	1	145	36	0	42	0	122	0.393024959834293	1	0.0487262422179097	10.6990507940636
291	0	87	105	0	42	0	120	0.673992482014	1	0.0449452110396427	10.6990507940636
292	0	44	11	1	41	0	120	0.643664158880711	1	0.030523287451976	10.7672959599128
293	1	119	87	1	40	0	120	0.593294065911323	0	0.0689738507063372	-21.6855946582863
294	0	122	49	1	42	0	122	0.535157314036041	0	0.0538866076000204	-21.3981015881272
295	1	15	96	0	45	0	120	0.710807652212679	0	0.022980002406332	-0
296	0	146	21	0	47	0	120	0.875792139908299	1	0.0851189491369347	10.4461306368389
297	0	94	93	0	46	0	120	0.453261299990118	1	0.0877939929812021	10.4866523497239
298	1	103	42	0	45	0	122	0.713512636022642	1	0.0544709367401561	10.5317356711684
299	0	50	15	0	45	0	120	0.726834604982287	1	0.0397587366667949	10.5317356711684
300	1	38	52	0	44	0	122	1.13463119301014	1	0.03856968507359	10.5818294796154
301	1	100	135	1	43	0	122	1.32022288395092	1	0.0383426512136435	10.637423161882
302	0	52	29	1	40	0	120	1.36210250901058	1	0.0579333886509963	10.8427973291431
303	1	41	90	1	38	0	122	1.04479727894068	1	0.016229470873488	0
304	1	70	27	1	35	0	122	1.15890492405742	1	0.0463193567961815	11.3562732561572
305	0	143	101	1	33	0	120	0.862266378011554	1	0.0212278903610193	0
306	1	65	86	0	30	0	122	0.818391042994335	1	0.0492642687189215	12.1939524293365
307	0	31	68	1	28	0	120	0.990171401994303	1	0.00455248106678293	0
308	0	144	53	1	25	0	120	0.988843712024391	1	0.0482379595474771	13.5698579813862
309	0	105	19	0	23	0	120	1.0350267670583	1	0.087327117293172	14.3534796503677
310	1	60	141	1	20	0	122	0.560881535988301	1	0.0175231785367825	0
311	1	45	13	0	18	0	122	0.713366765063256	1	0.0174171205339809	0
312	0	16	71	1	15	0	122	0.653669391991571	0	0.0323152289365156	-40.4088452569396
313	1	59	116	0	23	0	122	0.640513227088377	1	0.0315583413061348	14.3534796503677
314	1	55	34	0	20	0	122	0.511780939996243	1	0.035124925889602	15.9078573824027
315	0	71	18	0	18	0	120	0.801840475061908	1	0.049541130671806	17.2977075140088
316	1	6	139	0	16	0	122	0.863993021193892	1	0.0724401758879734	19.0977560856268
317	1	113	38	0	14	0	122	0.548981020925567	1	0.0497747464434489	21.4894846480087
318	0	95	10	0	12	0	120	0.653877416159958	1	0.0228794677864669	0
319	0	83	29	1	9	0	120	0.857586997793987	1	0.0479011336674879	32.7802579778312
320	0	125	6	1	7	0	122	1.40321415406652	0	6.13648564736908e-09	-0
321	1	136	116	0	14	0	120	0.858675586991012	0	2.47007933489452e-07	-0
322	0	26	65	0	20	0	120	0.573964572977275	1	0.000382692647405311	0
323	0	46	136	0	18	0	120	0.572501227026805	1	0.0305878741031456	17.2977075140088
324	1	105	127	1	16	0	120	1.00028991885483	0	0.0322970878913848	-38.1955121712537
325	1	67	107	0	22	0	122	0.565846217097715	1	0.014859256061493	0
326	1	27	2	1	20	0	122	0.670493341982365	1	0.0457178705588923	15.9078573824027
327	1	75	20	0	18	0	120	0.681840823031962	0	0.00688744309316628	-0
328	1	58	127	1	24	0	122	0.708060447825119	1	0.049099936912082	13.9407133208548
329	0	143	143	0	22	0	120	1.38228581193835	1	0.0502159171717069	14.8140232675861
330	1	36	35	1	20	0	120	0.596254781121388	0	0.0126119452280981	-0
331	1	92	14	0	25	0	122	1.16378580895253	1	0.0450172089976659	13.5698579813862
332	1	104	11	1	24	0	120	0.681263440987095	0	0.0245796301706994	-0
333	1	68	78	0	29	0	122	0.565201409161091	1	0.0675816885128264	12.4167012966934
334	1	87	139	1	27	0	122	0.740017327014357	1	0.0255980269900889	12.9347914455904
335	0	110	146	1	26	0	122	0.492005462991074	0	0.0529633086190698	-26.4719139901907
336	0	1	70	1	30	0	120	0.597956723067909	1	0.0289103841198299	12.1939524293365
337	0	3	90	0	29	0	120	1.07864849502221	1	0.0472408570578529	12.4167012966934
338	0	105	81	0	27	0	120	0.783858590992168	1	0.0653895343338915	12.9347914455904
339	1	34	97	1	26	0	120	0.519978374941275	0	0.110128905806033	-26.4719139901907
340	0	79	61	1	30	0	120	0.520356553141028	1	0.112991398237578	12.1939524293365
341	1	20	134	1	29	0	122	0.459387202048674	1	0.0687988594416992	12.4167012966934
342	0	89	6	0	27	0	122	0.780942573910579	0	0.0578251057626637	-25.8695828911809
343	0	99	50	1	32	0	120	0.487035118974745	1	0.0316830759997642	11.809187396145
344	1	114	115	1	30	0	120	0.882745531154796	0	0.0525865915037906	-24.387904858673
345	1	92	102	1	35	0	122	0.498293445911258	1	0.0502037695354226	11.3562732561572
346	0	85	103	0	33	0	120	0.591155631002039	1	0.0633876719423434	11.6432745528948
347	1	15	55	1	32	0	122	0.96415817597881	1	0.0304959202687824	11.809187396145
348	0	11	146	0	30	0	120	0.963624543044716	1	0.0458617195524315	12.1939524293365
349	1	140	117	1	29	0	122	0.487638172926381	1	0.0302939501413715	12.4167012966934
350	1	32	116	0	28	0	122	0.975526653928682	1	0.0659652560432989	12.662745701327
351	0	148	41	0	26	0	122	0.500427074031904	0	0.00397692846733578	-0
352	0	133	119	1	30	0	120	0.832181798992679	1	0.0560361198331837	12.1939524293365
353	1	102	135	0	29	0	122	0.499678998021409	1	0.0573843993237711	12.4167012966934
354	1	65	139	0	28	0	120	0.710652121109888	0	0.0210419220528789	-0
355	0	34	53	1	31	0	120	1.03507288591936	1	0.075474382182286	11.9921381276628
356	0	60	4	0	30	0	120	0.333258072147146	1	0.041064139153736	12.1939524293365
357	0	143	99	0	29	0	120	0.404422719031572	1	0.00253885548064506	0
358	1	48	101	0	28	0	122	0.742433093953878	1	0.0736927266143734	12.662745701327
359	0	75	59	1	27	0	120	0.474070655182004	1	0.0366899163032056	12.9347914455904
360	1	109	147	1	25	0	120	1.764976602979	0	0.0301017545779786	-27.1397159627724
361	0	137	115	0	29	0	120	0.641578645911068	1	0.0686049133815797	12.4167012966934
362	1	130	53	1	28	0	122	0.571254670154303	1	0.0941389717529941	12.662745701327
363	1	130	130	1	27	0	122	0.449992642970756	1	0.0460538722597994	12.9347914455904
364	0	139	135	0	25	0	120	0.553301892941818	1	0.0128139619121636	0
365	1	20	120	0	24	0	122	0.866179072996601	1	0.0349479806463944	13.9407133208548
366	1	22	133	0	23	0	122	0.635426217922941	1	0.0764057702858776	14.3534796503677
367	0	38	22	0	22	0	122	0.67327496688813	0	0.0628255121667918	-29.6280465351721
368	1	51	50	0	25	0	122	0.564088539918885	1	0.0229186352918678	0
369	1	4	136	0	24	0	122	0.572123738005757	1	0.0151447059554953	0
370	1	80	66	0	23	0	122	0.793997146189213	1	0.0233402241349252	0
371	0	63	43	0	22	0	122	0.681449607945979	0	0.0536387955249202	-29.6280465351721
372	1	111	36	1	25	0	122	0.545015998883173	1	0.0253596458502592	13.5698579813862
373	1	86	111	0	24	0	122	0.576572278980166	1	0.0687860420734072	13.9407133208548
374	1	145	110	1	23	0	122	0.432121346937492	1	0.0203946508196147	0
375	0	104	37	0	22	0	122	0.626351910177618	0	0.0492267310885903	-29.6280465351721
376	0	100	29	0	25	0	122	0.48388826684095	0	0.000826505599013178	-0
377	1	116	148	0	28	0	122	0.592527207918465	1	0.0237223821232737	0
378	1	59	81	0	27	0	122	0.455035660881549	1	0.115158846082138	12.9347914455904
379	0	131	147	1	26	0	122	0.404175590025261	0	0.0121503899048446	-0
380	1	48	147	1	29	0	122	0.574625530978665	1	0.020822816485745	0
381	0	88	147	1	28	0	122	0.378035511123016	0	0.0679930121881924	-25.325491402654
382	0	85	139	1	31	0	122	0.511033712187782	0	0.0741731478339343	-23.9842762553256
383	1	144	47	1	34	0	120	0.465622642077506	0	0.0474463163793364	-22.9855652746603
384	1	19	97	1	36	0	122	0.366962533909827	1	0.0705569561680104	11.2324616019804
385	0	100	34	0	35	0	122	0.342211683979258	0	0.0475281708933313	-22.7125465123144
386	0	37	49	1	38	0	120	0.597952751908451	1	0.00787786129676627	0
387	1	99	31	0	38	0	122	0.542359814979136	1	0.00294746731835387	0
388	0	95	105	0	37	0	120	0.894930274924263	1	0.0366126526600946	11.1201956546806
389	0	68	54	1	36	0	120	0.699576616985723	1	0.0595379457710427	11.2324616019804
390	1	119	135	1	35	0	120	0.533395257778466	0	0.0482854708381053	-22.7125465123144
391	1	141	119	0	38	0	122	0.567060302011669	1	0.103911443108935	11.0184387853277
392	0	15	87	1	37	0	120	0.749510867986828	1	0.0621504176563902	11.1201956546806
393	0	56	84	0	36	0	120	0.609056159155443	1	0.0347677090179281	11.2324616019804
394	1	70	111	0	35	0	122	0.500566438073292	1	0.0531756647563973	11.3562732561572
395	0	148	20	0	34	0	122	0.414982731919736	0	0.0139940265209048	-0
396	0	10	25	1	36	0	122	0.686548144090921	0	0.0518899968232546	-22.4649232039609
397	1	146	136	1	39	0	120	1.54476743401028	0	0.070389264464001	-21.8525102860517
398	0	113	7	1	42	0	120	1.04254074580967	1	0.102514209605423	10.6990507940636
399	0	32	85	1	41	0	120	0.605810274835676	1	0.0978518686619682	10.7672959599128
400	0	122	133	0	40	0	122	0.64348324900493	0	0.0517342754791976	-21.6855946582863
401	1	99	86	0	43	0	122	0.878590435022488	1	0.1193102957378	10.637423161882
402	0	4	113	0	40	0	120	0.562855534022674	1	0.0489598926617128	10.8427973291431
403	0	108	98	0	38	0	120	0.61662307404913	1	0.0437026681231561	11.0184387853277
404	1	86	120	1	35	0	122	0.67472371016629	1	0.0502508594460037	11.3562732561572
405	1	129	73	0	33	0	122	1.11849654000252	1	0.0471692481224684	11.6432745528948
406	1	138	72	1	30	0	122	0.642351872986183	1	0.0416748317138316	12.1939524293365
407	1	19	113	1	28	0	120	1.08037671702914	0	0.0300829483965966	-25.325491402654
408	0	125	79	0	35	0	122	0.537788711022586	0	0.070959861595578	-22.7125465123144
409	0	116	25	1	43	0	120	0.596654484048486	1	0.0565948675806703	10.637423161882
410	0	150	42	0	40	0	120	0.488208225229755	1	0.0316373797878398	10.8427973291431
411	0	117	106	0	38	0	120	0.891633753897622	1	0.0827715418215484	11.0184387853277
412	1	102	33	0	36	0	122	0.975096271140501	1	0.0254813243106768	11.2324616019804
413	0	112	104	1	34	0	120	0.613898833049461	1	0.06407639693475	11.4927826373301
414	0	96	118	0	32	0	120	0.428536391118541	1	0.0479901226516214	11.809187396145
415	0	105	21	0	30	0	120	0.667161465855315	1	0.0448853217755008	12.1939524293365
416	1	13	30	1	28	0	120	0.332403526175767	0	0.0040324896275258	-0
417	0	149	101	0	34	0	120	0.762938593979925	1	0.0497802105045778	11.4927826373301
418	0	132	131	0	32	0	122	0.638553590979427	0	0.0577293789622638	-23.61837479229
419	1	19	16	0	38	0	120	0.315590554848313	0	0.0561322025726024	-22.0368775706555
420	1	136	56	0	43	0	120	1.13431264203973	0	0.0789808378351926	-21.2748463237639
421	0	30	145	1	49	0	120	0.884216065052897	1	0.0715874941508147	10.3771576419477
422	0	119	61	0	47	0	120	0.416098401881754	1	0.0369889930995585	10.4461306368389
423	1	150	89	1	45	0	122	1.20448417705484	1	0.0564526352345059	10.5317356711684
424	0	18	100	1	44	0	120	0.492413573898375	1	0.0854671187507418	10.5818294796154
425	0	77	131	0	42	0	120	0.446871974971145	1	0.0125784592180912	0
426	0	47	76	1	40	0	120	0.692345157032833	1	0.0752636669554641	10.8427973291431
427	0	91	117	0	39	0	120	0.308770230039954	1	0.0864722941437637	10.9262551430258
428	1	48	40	0	37	0	120	0.849521024152637	0	0.034097236324656	-22.2403913093613
429	1	128	55	0	42	0	122	0.731075808871537	1	0.0829653643089325	10.6990507940636
430	0	87	25	1	40	0	122	0.628272695932537	0	0.0623230223511379	-21.6855946582863
431	1	43	37	0	45	0	120	0.521905611967668	0	0.0363932988277983	-21.0634713423368
432	1	92	11	1	50	0	122	0.612503134878352	1	0.0524720051767889	10.3479805145876
433	1	29	59	0	48	0	120	0.745884475065395	0	0.0375065754878267	-20.8195170338857
434	0	138	137	0	53	0	120	1.21197750209831	1	0.0693952617292751	10.2779287964151
435	1	104	45	1	51	0	120	0.506983244093135	0	0.076158143309806	-20.6438159814122
436	0	20	134	0	55	0	122	0.659596465993673	0	0.107299881680622	-20.4863093503197
437	1	146	70	0	60	0	122	0.576859670924023	1	0.0820652245869366	10.1858065600096
438	1	135	142	1	58	0	122	0.576753168832511	1	0.0847133239942279	10.2045398353722
439	0	1	86	0	57	0	120	0.661753290100023	1	0.100534913763801	10.2158520182858
440	0	114	136	1	56	0	120	1.14080548100173	1	0.0842140764356166	10.2286661297955
441	1	80	103	1	54	0	122	0.688691964140162	1	0.0801076353792899	10.2595066441038
442	0	139	9	0	53	0	120	0.447281079832464	1	0.0750584607575522	10.2779287964151
443	0	30	3	0	52	0	120	0.594296925934032	1	0.139627383655648	10.2986470504362
444	1	26	31	1	50	0	122	0.722771746106446	1	0.036118948561237	10.3479805145876
445	0	134	80	0	49	0	120	0.732568382052705	1	0.0965722757969101	10.3771576419477
446	1	54	112	0	48	0	122	0.774434566032141	1	0.0560089632459599	10.4097585169429
447	1	70	143	0	46	0	122	2.81152931600809	1	0.0428959258771191	10.4866523497239
448	1	4	101	0	45	0	122	1.5967115832027	1	0.0391300687901346	10.5317356711684
449	1	35	144	1	44	0	120	1.01239986205474	0	0.0985710531718925	-21.1636589592308
450	1	136	9	1	48	0	120	0.609615305904299	0	0.0360930437129806	-20.8195170338857
451	0	84	130	0	51	0	120	0.67882609507069	1	0.0375699003535343	10.3219079907061
452	0	15	106	0	50	0	120	0.794421792961657	1	0.0576234697818034	10.3479805145876
453	1	138	1	1	49	0	122	0.595362843945622	1	0.0942117596593613	10.3771576419477
454	1	84	15	0	48	0	122	0.519602350890636	1	0.0386095380310919	10.4097585169429
455	1	114	116	0	47	0	122	0.800137541955337	1	0.0667384972951585	10.4461306368389
456	1	129	133	1	45	0	122	0.406780380057171	1	0.0755784241708518	10.5317356711684
457	0	2	54	0	44	0	120	0.519765581935644	1	0.0407096287099042	10.5818294796154
458	1	17	39	0	43	0	122	0.584421613952145	1	0.028071374548853	10.637423161882
459	0	111	119	1	42	0	122	0.552531799999997	0	0.0518985507871254	-21.3981015881272
460	1	140	90	1	45	0	120	0.343681863043457	0	0.0579190619337802	-21.0634713423368
461	1	108	10	1	49	0	122	0.519847725983709	1	0.0674728642219406	10.3771576419477
462	0	9	143	0	48	0	120	0.653862107079476	1	0.118749234304884	10.4097585169429
463	0	149	15	0	46	0	122	0.369726083008572	0	0.0573932552570228	-20.9733046994479
464	0	37	138	0	50	0	122	0.86299710883759	0	0.0777623285253312	-20.6959610291753
465	1	130	6	0	53	0	120	0.507931134896353	0	0.0874547223931567	-20.5558575928303
466	1	80	60	0	56	0	122	0.604924749117345	1	0.0636286182202594	10.2286661297955
467	0	124	4	1	55	0	120	0.58757157693617	1	0.0814055019647019	10.2431546751599
468	1	85	146	0	54	0	122	0.42131413705647	1	0.0636004723637791	10.2595066441038
469	1	34	70	1	53	0	122	0.443418809911236	1	0.0987409989659239	10.2779287964151
470	0	93	42	1	52	0	120	0.438186038983986	1	0.0259128012741967	10.2986470504362
471	0	44	98	1	51	0	120	1.23025207803585	1	0.0439458445480317	10.3219079907061
472	0	10	110	1	50	0	120	0.763397269882262	1	0.0980102008643487	10.3479805145876
473	1	28	66	0	49	0	122	0.50523904315196	1	0.111303177015037	10.3771576419477
474	0	110	92	1	48	0	122	1.13338712393306	0	0.0289317816102764	-20.8195170338857
475	0	128	37	1	51	0	120	0.735944463871419	1	0.0530255028261967	10.3219079907061
476	1	111	98	0	50	0	120	0.455187515122816	0	0.0861418147663502	-20.6959610291753
477	0	106	1	1	53	0	120	0.730159060098231	1	0.0873897029737753	10.2779287964151
478	0	8	69	1	52	0	120	1.88351510791108	1	0.0787485815510495	10.2986470504362
479	1	99	18	0	51	0	122	0.54331940994598	1	0.16040970740236	10.3219079907061
480	1	27	141	0	50	0	122	0.590615490917116	1	0.0295645087668633	10.3479805145876
481	1	35	37	1	49	0	122	0.541787171037868	1	0.0481955404175246	10.3771576419477
482	1	15	118	1	48	0	120	1.13768768799491	0	0.0850629745553556	-20.8195170338857
483	1	141	128	0	51	0	122	0.462685653939843	1	0.0643848731828121	10.3219079907061
484	0	18	133	0	50	0	122	0.494113175198436	0	0.05637516111569	-20.6959610291753
485	0	16	137	0	53	0	122	0.469706603093073	0	0.0997274614498758	-20.5558575928303
486	0	38	148	0	55	0	120	0.620602617971599	1	0.0529373747909828	10.2431546751599
487	0	83	132	1	54	0	120	0.49696236802265	1	0.0927309362351992	10.2595066441038
488	1	50	143	1	54	0	120	0.43558430694975	0	0.0645109285408363	-20.5190132882077
489	1	113	40	1	56	0	122	0.553258221130818	1	0.0476594529101498	10.2286661297955
490	0	67	63	1	55	0	120	0.77767393598333	1	0.0945055206442866	10.2431546751599
491	0	96	143	1	54	0	120	0.439784971997142	1	0.0500594548451206	10.2595066441038
492	1	132	145	1	54	0	122	0.51510207192041	1	0.0497611482972403	10.2595066441038
493	0	38	94	1	53	0	120	0.628079748945311	1	0.0884057856727895	10.2779287964151
494	1	59	108	0	52	0	122	0.953096941811964	1	0.0434620696193472	10.2986470504362
495	0	76	123	0	51	0	120	0.88385745906271	1	0.113421455745197	10.3219079907061
496	1	92	43	1	50	0	122	0.605251775123179	1	0.0410492374680811	10.3479805145876
497	1	27	64	0	50	0	122	0.724100233986974	1	0.0674902859098952	10.3479805145876
498	1	122	32	0	49	0	122	0.431493801064789	1	0.110343251597908	10.3771576419477
499	0	92	114	0	48	0	122	1.03263458283618	0	0.074282773905063	-20.8195170338857
500	0	63	25	1	50	0	122	0.506857083877549	0	0.0422121467396407	-20.6959610291753
