Trial	Gender_Face1	Face1_nb	Face2_nb	Right_left_flip	Nb_Bubbles	Overlap_Target	Response	RT	Accuracy	Simi2Target	Trial_Reward
1	1	122	52	0	48	0	120	0.947955565992743	1	0	0
2	0	69	5	0	45	0	122	0.315019434085116	1	0	0
3	0	112	140	0	43	0	122	0.907390058040619	1	0	0
4	1	105	22	1	40	0	120	1.10082752420567	1	0	0
5	0	82	41	0	38	0	122	0.830062893917784	1	0	0
6	0	10	66	1	35	0	122	0.939022707985714	1	0	0
7	1	55	83	0	33	0	120	0.540016056969762	1	0	0
8	1	141	12	1	30	0	120	0.627972943941131	1	0	0
9	1	148	95	0	28	0	122	1.10666601313278	0	0	0
10	1	105	103	0	36	0	120	0.644331135088578	1	0	0
11	0	124	77	1	33	0	122	0.536653419956565	1	0	0
12	1	90	94	1	31	0	122	0.586111926008016	0	0	0
13	1	146	100	1	38	0	122	2.1003224060405	0	0	0
14	0	87	15	1	44	0	120	0.378132947022095	0	0	0
15	0	117	60	0	50	0	122	0.529414549935609	1	0	0
16	1	74	21	1	48	0	120	0.619199631968513	1	0	0
17	0	146	149	0	47	0	122	0.462970781140029	1	0	0
18	0	41	10	1	45	0	122	0.746219628024846	1	0	0
19	0	113	147	1	43	0	122	0.696775794960558	1	0	0
20	1	46	106	0	41	0	122	1.15015912195668	0	0	0
21	1	74	106	0	47	0	120	0.797402068972588	1	0	0
22	1	16	112	1	45	0	122	0.444760329090059	0	0	0
23	0	69	13	0	50	0	122	0.863764056004584	1	0	0
24	0	99	97	1	48	0	122	0.658939473098144	1	0	0
25	0	64	148	0	47	0	122	1.94263663282618	1	0	0
26	1	61	141	0	45	0	122	0.68834377406165	0	0	0
27	0	13	23	1	50	0	122	0.754630130017176	1	0	0
28	0	46	89	1	48	0	122	0.716943918028846	1	0	0
29	0	142	99	1	47	0	122	0.867228645132855	1	0	0
30	0	118	23	0	45	0	122	0.480843466939405	1	0	0
31	0	47	53	0	43	0	122	0.314129370963201	1	0	0
32	0	100	86	1	42	0	122	0.44659484596923	1	0	0
33	1	75	20	0	40	0	120	0.930078040109947	1	0	0
34	0	148	6	1	39	0	122	0.423752975882962	1	0	0
35	0	129	80	0	37	0	122	0.63754877820611	1	0	0
36	1	150	103	1	36	0	122	0.441965244011953	0	0	0
37	0	110	3	1	40	0	120	2.01582790911198	0	0	0
38	1	132	90	1	45	0	120	0.471731042023748	1	0	0
39	0	58	54	1	43	0	122	0.477404237957671	1	0	0
40	0	116	16	1	42	0	120	0.806810403009877	0	0	0
41	0	110	98	0	46	0	122	1.10606087581255	1	0	0
42	1	95	90	1	45	0	120	0.528866929933429	1	0	0
43	0	95	63	0	43	0	122	0.48221014207229	1	0	0
44	0	133	101	1	42	0	122	0.580554228974506	1	0	0
45	0	15	29	1	41	0	122	0.400494023924693	1	0	0
46	0	134	42	1	39	0	122	0.470929546048865	1	0	0
47	1	42	8	0	38	0	122	0.426224722992629	0	0	0
48	1	36	51	0	42	0	120	0.53544836002402	1	0	0
49	1	83	65	1	41	0	120	1.10273038619198	1	0	0
50	0	143	128	1	39	0	120	0.819051241967827	0	0	0
51	1	119	92	0	43	0	120	0.439225123962387	1	0	0
52	0	112	79	1	42	0	122	0.451378609985113	1	0	0
53	0	27	120	1	41	0	122	1.06307988986373	1	0	0
54	1	85	88	0	40	0	120	0.459531106054783	1	0	0
55	1	70	101	1	38	0	120	0.638585565146059	1	0	0
56	0	54	48	1	37	0	122	0.314985137898475	1	0	0
57	0	53	145	0	36	0	120	0.837218947010115	0	0	0
58	0	52	2	1	40	0	120	0.4735822819639	0	0	0
59	0	137	142	0	43	0	122	0.781350089004263	1	0	0
60	0	77	8	1	42	0	122	0.476188046857715	1	0	0
61	0	102	39	0	41	0	122	0.585898009827361	1	0	0
62	1	126	81	0	40	0	120	0.670532857067883	1	0	0
63	0	1	122	1	39	0	122	0.456686338875443	1	0	0
64	1	117	133	0	38	0	120	0.7236134018749	1	0	0
65	0	44	81	0	37	0	122	0.598061783937737	1	0	0
66	0	43	21	0	36	0	122	0.49882281315513	1	0	0
67	1	106	54	1	35	0	120	0.527965107001364	1	0	0
68	0	150	91	1	34	0	122	1.42217053403147	1	0	0
69	0	148	42	0	33	0	122	1.01364902895875	1	0	0
70	1	119	125	0	32	0	120	0.505551852984354	1	0	0
71	1	77	111	1	31	0	120	0.514414427103475	1	0	0
72	1	99	130	0	30	0	120	0.428926885826513	1	0	0
73	0	13	145	0	29	0	120	0.478281985968351	0	0	0
74	0	113	101	0	32	0	120	0.436106998939067	0	0	0
75	0	89	148	0	34	0	120	0.686638475162908	0	0	0
76	0	38	13	0	37	0	122	0.39665584708564	1	0	0
77	0	117	128	0	36	0	122	0.488750790013	1	0	0
78	1	121	107	1	35	0	122	0.460506869945675	0	0	0
79	0	16	123	1	38	0	122	0.343241265974939	1	0	0
80	0	61	35	1	37	0	122	0.492799089988694	1	0	0
81	1	142	92	0	36	0	120	1.01175652304664	1	0	0
82	0	16	30	0	36	0	122	0.806913117878139	1	0	0
83	1	148	53	1	35	0	120	0.593971721129492	1	0	0
84	1	53	117	1	34	0	122	0.475710856961086	0	0	0
85	0	148	95	1	36	0	122	0.511569160968065	1	0	0
86	0	133	60	1	36	0	122	0.911532031837851	1	0	0
87	0	134	64	1	35	0	122	0.522708373842761	1	0	0
88	1	71	135	0	34	0	120	0.475388917839155	1	0	0
89	0	113	96	0	33	0	120	0.293581953039393	0	0	0
90	1	136	85	0	35	0	120	0.423720420105383	1	0	0
91	1	67	60	1	35	0	120	0.653959522023797	1	0	0
92	1	110	74	1	34	0	122	0.698046693112701	0	0	0
93	0	20	86	0	36	0	120	0.425341916969046	0	0	0
94	1	44	99	1	39	0	120	0.28866329905577	1	0	0
95	1	119	56	0	38	0	120	0.408990890951827	1	0	0
96	0	86	128	0	37	0	122	0.600381759926677	1	0	0
97	0	9	21	0	36	0	120	0.775501058902591	0	0	0
98	0	5	148	0	39	0	120	0.298944907961413	0	0	0
99	0	26	129	0	41	0	122	0.474953741999343	1	0	0
100	1	43	80	0	40	0	120	0.458211072953418	1	0	0
101	1	6	43	0	40	0	120	0.7189991469495	1	0	0
102	0	53	125	0	37	0	120	0.195878935977817	0	0	0
103	0	140	134	1	45	0	122	0.426935323048383	1	0	0
104	0	136	62	1	43	0	122	0.487848863936961	1	0	0
105	1	97	148	0	41	0	120	0.514182745944709	1	0	0
106	1	86	81	0	39	0	120	0.398988757980987	1	0	0
107	1	34	87	0	36	0	122	0.619502255925909	0	0	0
108	0	89	140	1	43	0	122	0.664338011061773	1	0	0
109	1	1	96	1	41	0	120	0.412913573207334	1	0	0
110	0	132	126	1	39	0	120	0.570085359038785	0	0	0
111	1	135	118	0	45	0	120	0.323034175904468	1	0	0
112	1	112	12	1	43	0	120	0.394554540049285	1	0	0
113	0	88	102	0	41	0	122	0.632627244107425	1	0	0
114	0	128	87	0	39	0	122	0.597640936030075	1	0	0
115	0	15	27	1	37	0	122	0.428567511029541	1	0	0
116	1	87	70	0	36	0	122	0.640152771957219	0	0	0
117	1	50	32	1	41	0	120	0.493778592906892	1	0	0
118	1	62	129	1	39	0	120	0.580789322033525	1	0	0
119	0	30	115	0	38	0	122	2.15199358412065	1	0	0
120	1	31	24	0	36	0	120	0.518486057873815	1	0	0
121	0	108	1	0	34	0	122	0.562998617999256	1	0	0
122	1	56	100	0	32	0	120	0.472143508028239	1	0	0
123	0	39	11	1	31	0	122	0.771213732892647	1	0	0
124	1	101	123	1	29	0	120	0.297839256003499	1	0	0
125	0	103	117	1	27	0	122	0.404739990830421	1	0	0
126	0	131	11	0	26	0	122	0.45167050906457	1	0	0
127	1	129	138	1	24	0	120	0.358474462060258	1	0	0
128	1	119	11	0	22	0	120	0.432388441171497	1	0	0
129	0	146	30	1	21	0	120	0.406078938161954	0	0	0
130	1	135	99	0	26	0	120	0.801340691978112	1	0	0
131	1	75	39	0	24	0	120	0.486468728166074	1	0	0
132	1	133	36	1	23	0	120	0.628568892134354	1	0	0
133	1	77	61	1	21	0	120	0.46875920984894	1	0	0
134	0	69	80	1	20	0	122	1.03178926790133	1	0	0
135	0	89	26	0	18	0	122	0.360710667911917	1	0	0
136	1	126	30	1	17	0	120	0.355806208914146	1	0	0
137	1	84	61	1	15	0	120	0.446050797821954	1	0	0
138	0	71	53	0	14	0	122	0.474577550077811	1	0	0
139	1	107	109	0	13	0	120	0.648178070085123	1	0	0
140	1	99	29	0	11	0	122	0.537259252974764	0	0	0
141	1	16	50	0	15	0	122	0.402953269891441	0	0	0
142	1	133	136	1	19	0	120	0.791653458029032	1	0	0
143	1	106	90	1	18	0	120	1.14603955694474	1	0	0
144	0	57	10	0	17	0	122	2.30358666088432	1	0	0
145	1	35	125	1	15	0	120	0.432571394136176	1	0	0
146	1	13	20	1	14	0	122	2.28409758605994	0	0	0
147	1	144	8	1	18	0	120	0.437672273954377	1	0	0
148	1	58	37	1	17	0	122	0.387703204993159	0	0	0
149	0	53	96	1	21	0	122	0.403235208010301	1	0	0
150	1	133	72	0	19	0	120	0.482180129969493	1	0	0
151	0	9	115	0	18	0	122	0.626702998066321	1	0	0
152	0	31	22	1	17	0	120	0.55453256610781	0	0	0
153	1	22	63	1	20	0	122	0.457719979109243	0	0	0
154	0	138	119	1	24	0	120	0.443715863861144	0	0	0
155	0	38	95	1	28	0	122	0.804227517917752	1	0	0
156	1	72	144	1	26	0	120	1.5585115510039	1	0	0
157	1	63	101	0	25	0	120	0.920163615141064	1	0	0
158	0	112	92	0	24	0	122	0.498409238178283	1	0	0
159	1	92	93	0	23	0	122	1.02536673494615	0	0	0
160	0	80	90	0	26	0	120	1.24566109012812	0	0	0
161	0	34	15	0	30	0	122	0.670101549010724	1	0	0
162	1	15	30	0	29	0	122	0.909367901971564	0	0	0
163	1	17	132	1	32	0	120	0.512599351815879	1	0	0
164	0	60	99	1	31	0	120	0.344856342999265	0	0	0
165	0	115	138	1	34	0	122	0.177086665993556	1	0	0
166	0	96	67	1	33	0	122	0.162111385026947	1	0	0
167	1	65	124	1	32	0	120	0.971898739924654	1	0	0
168	1	43	72	0	31	0	120	0.591078983154148	1	0	0
169	1	112	135	1	30	0	120	0.695212352089584	1	0	0
170	0	7	5	1	29	0	122	0.321237077005208	1	0	0
171	1	144	133	1	28	0	120	0.602308226050809	1	0	0
172	1	44	10	1	27	0	122	0.486653512110934	0	0	0
173	0	30	87	0	30	0	120	0.218083479907364	0	0	0
174	0	67	13	0	33	0	122	0.629620151827112	1	0	0
175	1	137	92	1	32	0	120	0.469509137794375	1	0	0
176	1	138	122	1	31	0	120	0.413311993004754	1	0	0
177	0	124	114	0	30	0	120	0.3499078839086	0	0	0
178	1	93	64	0	33	0	120	1.19925558101386	1	0	0
179	1	2	54	1	32	0	122	0.460353492991999	0	0	0
180	0	20	34	0	35	0	120	0.507602498168126	0	0	0
181	1	133	79	1	38	0	120	0.662320337956771	1	0	0
182	0	143	61	1	37	0	122	0.409376621013507	1	0	0
183	0	62	130	1	36	0	120	0.643454598030075	0	0	0
184	0	13	70	0	38	0	122	0.284958832897246	1	0	0
185	0	38	16	1	37	0	122	0.544292639940977	1	0	0
186	1	115	71	0	37	0	120	0.82248818106018	1	0	0
187	1	36	121	0	36	0	122	0.390032473020256	0	0	0
188	1	95	150	1	38	0	120	0.397560883080587	1	0	0
189	0	88	68	0	37	0	120	0.676308064954355	0	0	0
190	0	105	96	1	40	0	120	0.35027253604494	0	0	0
191	0	139	137	0	43	0	122	0.451685257954523	1	0	0
192	0	74	57	1	42	0	122	0.49638931103982	1	0	0
193	0	98	110	0	41	0	122	0.469072656007484	1	0	0
194	0	123	113	0	40	0	120	2.91109774983488	0	0	0
195	0	1	46	1	43	0	122	0.313502408098429	1	0	0
196	0	84	84	1	42	0	122	0.354335048003122	1	0	0
197	0	48	17	0	41	0	122	0.247785737970844	1	0	0
198	1	77	67	0	40	0	120	0.870869528036565	1	0	0
199	1	101	79	1	39	0	122	0.426214274019003	0	0	0
200	0	56	129	0	42	0	122	0.27261331002228	1	0	0
201	0	6	7	0	42	0	122	1.18147683516145	1	0	0
202	0	37	29	1	39	0	122	0.816347368992865	1	0	0
203	0	65	124	1	36	0	122	0.942357909167185	1	0	0
204	0	136	129	0	33	0	120	0.774973338935524	0	0	0
205	0	59	143	1	42	0	122	0.806396703002974	1	0	0
206	0	127	62	0	40	0	122	0.499798056203872	1	0	0
207	0	85	44	1	37	0	122	0.381819301983342	1	0	0
208	0	42	95	0	35	0	122	0.717051989864558	1	0	0
209	0	113	20	0	32	0	120	0.535000550094992	0	0	0
210	1	74	62	1	39	0	120	0.638312818948179	1	0	0
211	1	13	148	0	37	0	120	0.3955451361835	1	0	0
212	0	95	90	1	35	0	122	0.57980273803696	1	0	0
213	1	97	3	0	32	0	120	0.4598289411515	1	0	0
214	1	15	81	1	30	0	122	0.58126389188692	0	0	0
215	0	15	123	1	37	0	122	0.674559545936063	1	0	0
216	0	19	24	1	35	0	122	1.34552526194602	1	0	0
217	0	92	137	0	33	0	122	0.671269397018477	1	0	0
218	0	123	105	1	30	0	120	0.833815201185644	0	0	0
219	0	38	131	1	37	0	120	0.624543108977377	0	0	0
220	0	75	26	0	43	0	122	0.348258206853643	1	0	0
221	1	113	7	1	41	0	120	1.11705467896536	1	0	0
222	0	118	106	0	39	0	120	0.438728170003742	0	0	0
223	1	16	57	1	45	0	120	0.363101865164936	1	0	0
224	0	66	131	0	43	0	120	0.976743682986125	0	0	0
225	0	58	66	1	49	0	122	0.48241581604816	1	0	0
226	0	15	130	0	47	0	122	0.396739195799455	1	0	0
227	0	133	142	0	45	0	122	1.65097133209929	1	0	0
228	0	5	14	0	43	0	122	0.544473635032773	1	0	0
229	0	106	46	0	42	0	122	0.517837883904576	1	0	0
230	1	20	109	1	40	0	122	0.510551908053458	0	0	0
231	1	86	24	1	45	0	120	0.688859299058095	1	0	0
232	0	86	30	1	44	0	122	0.612660167040303	1	0	0
233	1	26	116	1	42	0	120	0.618350679986179	1	0	0
234	1	104	49	0	40	0	120	0.944709775969386	1	0	0
235	1	100	147	0	39	0	120	0.591042991029099	1	0	0
236	1	99	111	1	37	0	120	0.646094574127346	1	0	0
237	0	84	95	0	35	0	122	0.702594737987965	1	0	0
238	1	115	42	0	34	0	120	0.569363259943202	1	0	0
239	0	89	126	0	32	0	120	0.612715426133946	0	0	0
240	1	29	18	1	37	0	120	2.08995065605268	1	0	0
241	0	132	126	1	36	0	120	0.56519444193691	0	0	0
242	0	25	8	0	40	0	122	0.538768135942519	1	0	0
243	0	141	9	0	39	0	122	0.397984131006524	1	0	0
244	1	8	90	0	37	0	120	0.418367380043492	1	0	0
245	1	60	14	1	36	0	120	0.441935450071469	1	0	0
246	0	70	58	0	34	0	122	0.492785545997322	1	0	0
247	0	90	72	0	33	0	122	0.919028378091753	1	0	0
248	0	4	143	1	32	0	122	0.985320273088291	1	0	0
249	1	69	15	1	30	0	122	1.0257292620372	0	0	0
250	1	119	13	0	34	0	120	0.36348514421843	1	0	0
251	0	32	2	1	33	0	120	0.643245794111863	0	0	0
252	1	148	126	0	37	0	122	0.921800123061985	0	0	0
253	0	128	83	0	41	0	120	0.784848636947572	0	0	0
254	0	79	39	1	45	0	122	0.507225041976199	1	0	0
255	0	83	141	1	44	0	120	0.578129650093615	0	0	0
256	1	65	49	0	48	0	120	0.607494730968028	1	0	0
257	0	30	21	1	46	0	120	0.905982269905508	0	0	0
258	0	77	59	1	50	0	122	0.600939077092335	1	0	0
259	0	91	15	1	49	0	122	0.3184731581714	1	0	0
260	0	76	31	0	48	0	122	0.543396448018029	1	0	0
261	0	150	121	0	46	0	122	0.519089343957603	1	0	0
262	0	12	142	0	45	0	122	0.362280964851379	1	0	0
263	0	36	25	0	44	0	122	0.580601702909917	1	0	0
264	1	120	114	0	43	0	120	0.739576320862398	1	0	0
265	1	93	22	0	42	0	120	0.37380332313478	1	0	0
266	1	139	114	1	40	0	120	0.260048853931949	1	0	0
267	0	40	87	1	39	0	122	0.497897489927709	1	0	0
268	0	109	80	0	38	0	122	0.542388265952468	1	0	0
269	1	3	13	1	37	0	120	0.482753085903823	1	0	0
270	0	9	35	1	36	0	122	1.02092832187191	1	0	0
271	1	60	62	0	35	0	120	0.334321890026331	1	0	0
272	0	47	5	1	34	0	122	0.427684966940433	1	0	0
273	1	42	26	1	33	0	120	0.50805780896917	1	0	0
274	1	101	33	1	32	0	120	0.361275922041386	1	0	0
275	0	35	45	0	31	0	120	0.575902889017016	0	0	0
276	1	68	123	1	34	0	120	0.398649655980989	1	0	0
277	1	92	16	1	33	0	120	0.388969812076539	1	0	0
278	1	104	123	1	32	0	120	0.364460660843179	1	0	0
279	1	143	30	1	31	0	120	0.508191578090191	1	0	0
280	1	8	62	0	30	0	120	0.438519618008286	1	0	0
281	1	62	94	1	29	0	120	0.361281475052238	1	0	0
282	1	123	45	1	28	0	122	0.777535799890757	0	0	0
283	0	32	18	1	31	0	122	1.15085192304105	1	0	0
284	1	41	83	0	30	0	122	0.722114057978615	0	0	0
285	0	138	130	0	32	0	120	0.636645640013739	0	0	0
286	0	7	16	0	35	0	122	0.929495013086125	1	0	0
287	0	45	39	1	34	0	122	0.616788201034069	1	0	0
288	0	102	130	0	34	0	120	0.475405452074483	0	0	0
289	1	121	138	1	36	0	120	0.623990278923884	1	0	0
290	0	48	60	1	35	0	122	0.435874584130943	1	0	0
291	0	118	66	0	35	0	122	0.433932201936841	1	0	0
292	0	69	22	1	34	0	122	0.670428748009726	1	0	0
293	1	137	7	1	33	0	122	0.882800629828125	0	0	0
294	1	18	41	1	35	0	120	0.428633242147043	1	0	0
295	1	127	55	0	35	0	122	0.961286710109562	0	0	0
296	0	72	87	0	37	0	122	0.784729090053588	1	0	0
297	0	112	131	1	36	0	122	0.585419744951651	1	0	0
298	0	124	149	0	36	0	122	0.53226165403612	1	0	0
299	1	146	31	1	35	0	120	0.751704050926492	1	0	0
300	0	45	93	0	34	0	122	0.511959128081799	1	0	0
