Trial	Gender_Face1	Face1_nb	Face2_nb	Right_left_flip	Nb_Bubbles	Overlap_Target	Response	RT	Accuracy	Simi2Target	Trial_Reward
1	1	134	55	0	59	0	122	1.61808634700719	1	0.0984729142717178	10.1942669347537
2	1	100	28	0	55	0	120	1.04785460099811	0	0.0569306977906735	-20.4858193816224
3	0	105	81	1	68	0	120	0.854819350992329	1	0.0706724379119736	10.1452961872043
4	0	124	78	0	64	0	120	0.602878300996963	1	0.0565124536051611	10.1599824349267
5	1	89	133	1	60	0	122	0.635560891998466	1	0.114499213868512	10.1854890507786
6	0	68	125	0	57	0	122	1.06855021900265	0	0.0936237972022415	-20.4311484851376
7	1	13	14	1	68	0	120	0.694393872981891	0	0.11027728194612	-20.2905923744087
8	0	122	133	1	79	0	120	0.839274858997669	1	0.0876522628057688	10.130844835
9	1	19	105	0	76	0	120	0.891074760991614	0	0.0631597728010802	-20.2654068696542
10	1	134	67	1	86	0	122	0.660892035986762	1	0.0866373849086284	10.1289178466182
11	1	143	147	1	83	0	122	1.00752658600686	1	0.160352485643797	10.129467796308
12	0	62	45	0	80	0	120	0.883127176959533	1	0.066651931976373	10.1304065965614
13	1	47	99	0	77	0	122	0.565315302985255	1	0.0609458252307616	10.1319785101223
14	1	77	111	1	74	0	120	0.684883869020268	0	0.143070306270675	-20.2691205413333
15	0	78	17	0	84	0	120	0.661530037003104	1	0.138811447013974	10.1292504214265
16	1	120	92	1	81	0	120	0.984428325027693	0	0.0958090378353791	-20.2600752614348
17	0	108	105	1	89	0	120	0.671500733005814	1	0.075537305248019	10.1286018657176
18	1	141	147	1	86	0	122	0.801051512011327	1	0.102767323877349	10.1289178466182
19	0	145	97	0	84	0	120	0.614562644972466	1	0.158387160967364	10.1292504214265
20	1	124	79	1	81	0	120	0.754123645019718	0	0.123632109833429	-20.2600752614348
21	1	132	127	1	89	0	122	0.849768401007168	1	0.0662979433143922	10.1286018657176
22	0	40	52	1	86	0	120	0.621307374036405	1	0.0683450362492822	10.1289178466182
23	1	126	46	1	84	0	122	0.782428761944175	1	0.145794238821398	10.1292504214265
24	1	109	20	0	81	0	120	0.814321664976887	0	0.135207999657261	-20.2600752614348
25	1	92	64	0	89	0	122	0.659707360959146	1	0.107050205525989	10.1286018657176
26	0	12	4	1	86	0	120	0.84582337300526	1	0.0255878470794901	10.1289178466182
27	0	42	79	1	84	0	120	0.69644590804819	1	0.0734986143619441	10.1292504214265
28	1	26	118	0	81	0	122	0.699256432999391	1	0.0848505430080432	10.1300376307174
29	0	15	54	1	79	0	120	1.03594182501547	1	0.122161895890949	10.130844835
30	1	14	14	0	77	0	120	0.720613289973699	0	0.130576142143581	-20.2639570202445
31	1	106	68	1	84	0	122	0.736160448985174	1	0.0888890224713641	10.1292504214265
32	1	6	49	0	81	0	122	0.599793325993232	1	0.146155971167569	10.1300376307174
33	0	67	16	0	79	0	120	0.622415868041571	1	0.105011213512395	10.130844835
34	0	33	26	1	77	0	120	0.594158145016991	1	0.104911789443408	10.1319785101223
35	1	73	124	1	75	0	122	1.05560907401377	1	0.135654429551594	10.133557113535
36	0	60	27	1	72	0	120	0.616871330013964	1	0.0869137794245395	10.1371129716293
37	1	65	105	0	70	0	122	0.526287853019312	1	0.095427788815671	10.1405926736671
38	1	70	61	1	68	0	122	0.749714963021688	1	0.0217017751831891	0
39	0	25	120	1	66	0	120	1.3180977840093	1	0.0815113491409885	10.1516009638473
40	1	122	94	1	64	0	122	0.718314346973784	1	0.0542209133817813	10.1599824349267
41	1	21	54	1	62	0	122	0.855715717014391	1	0.14289977881034	10.1710338869944
42	0	12	123	0	60	0	120	0.709102698019706	1	0.122980439988765	10.1854890507786
43	0	31	70	0	58	0	120	0.960520003980491	1	0.0915501232029201	10.2042476265191
44	0	62	135	0	56	0	120	0.845919304003473	1	0.0117752952070038	0
45	1	56	58	0	54	0	122	0.868870449950919	1	0.107083100332213	10.2592801621694
46	0	88	33	0	52	0	120	0.669604879978579	1	0.0915906748094815	10.2984621447649
47	0	104	133	1	50	0	120	0.801067052991129	1	0.0484411373085996	10.3478437490739
48	1	132	58	0	48	0	122	0.61420338897733	1	0.0390288527145667	10.409677003319
49	1	18	130	1	46	0	122	0.588128120987676	1	0.101568053507114	10.4866337303374
50	0	59	131	0	44	0	120	0.728920588968322	1	0.0923025212717166	10.5818819156885
51	0	62	66	1	42	0	120	0.832259641960263	1	0.0687052852170825	10.6991829678433
52	0	125	139	1	41	0	122	0.531766731990501	0	0.0399016836940754	-21.5349428550014
53	0	19	66	0	46	0	120	0.644843292015139	1	0.0801179368098665	10.4866337303374
54	1	130	1	0	44	0	122	0.71919373399578	1	0.0414652992196452	10.5818819156885
55	0	7	101	0	42	0	120	0.760747089982033	1	0.0592423961337976	10.6991829678433
56	0	25	53	0	41	0	120	0.702286169980653	1	0.0370805931165391	10.7674714275007
57	0	31	66	1	39	0	120	0.885831812978722	1	0.053989067218882	10.9265244157653
58	0	137	103	0	37	0	120	0.681023845041636	1	0.0825667046797078	11.1205689162718
59	0	120	53	1	36	0	120	0.812046286009718	1	0.0636564854452706	11.2328909210242
60	1	94	57	0	34	0	120	0.729150681989267	0	0.0341284313909567	-22.9866655984786
61	0	105	64	1	39	0	122	1.04041740001412	0	0.0505260338030062	-21.8530488315306
62	1	107	26	0	44	0	122	1.03487314999802	1	0.0413773127532245	10.5818819156885
63	0	105	28	1	42	0	120	0.583414715947583	1	0.0328146919257816	10.6991829678433
64	0	41	110	1	40	0	120	0.652530794031918	1	0.0568254552939645	10.8430184702156
65	1	110	10	0	39	0	122	0.703914338024333	1	0.0425565434167637	10.9265244157653
66	0	112	38	1	37	0	120	0.746216455998365	1	0.0621889225614727	11.1205689162718
67	1	51	90	0	36	0	120	0.554139302985277	0	0.0630025544685052	-22.4657818420483
68	0	3	124	1	41	0	122	0.607968344003893	0	0.0137157115058436	-0
69	0	14	60	1	45	0	122	0.717781504034065	0	0.0107572132329031	-0
70	1	38	74	1	50	0	122	0.838974403042812	1	0.0642102598978838	10.3478437490739
71	1	60	87	1	48	0	122	0.593785778037272	1	0.0676405447648623	10.409677003319
72	0	73	110	0	47	0	122	0.639241261000279	0	0.0505697868602358	-20.8921591649053
73	0	38	35	1	52	0	120	0.66705207398627	1	0.0263450238756416	10.2984621447649
74	1	45	46	0	50	0	122	0.888847683963832	1	0.0767413886830751	10.3478437490739
75	0	135	108	1	48	0	122	0.74291822098894	0	0.0575020578328851	-20.8193540066379
76	0	57	84	0	53	0	120	0.94077779102372	1	0.0396218473571561	10.2777223170449
77	1	86	10	0	52	0	122	1.08431246096734	1	0.0822379753320383	10.2984621447649
78	0	34	13	1	50	0	122	0.87942525401013	0	0.0970324754464132	-20.6956874981478
79	0	63	47	1	54	0	120	1.27238920796663	1	0.0338247563315455	10.2592801621694
80	0	149	118	0	53	0	120	0.762750515015796	1	0.0928614029207008	10.2777223170449
81	0	65	43	1	51	0	120	0.913761762029026	1	0.0534032814490477	10.3217462999684
82	0	44	79	1	50	0	120	1.04917732597096	1	0.0864843088996872	10.3478437490739
83	1	8	73	0	49	0	122	0.910837306990288	1	0.0549260497525703	10.3770475798729
84	1	33	143	0	47	0	120	0.961165609012824	0	0.0654450670163354	-20.8921591649053
85	0	145	60	0	51	0	120	0.643208664027043	1	0.0957429698090657	10.3217462999684
86	0	149	3	1	50	0	120	1.19025488902116	1	0.0337937560428748	10.3478437490739
87	1	45	41	0	49	0	120	1.25907605595421	0	0.0515083893978761	-20.7540951597459
88	1	135	109	0	53	0	120	0.933716020022985	0	0.0493054870195558	-20.5554446340898
89	0	144	139	1	57	0	120	0.631217787973583	1	0.091027657024522	10.2155742425688
90	0	37	110	0	55	0	120	1.08245519001503	1	0.0950474146428496	10.2429096908112
91	0	105	94	0	54	0	120	0.956976663961541	1	0.0623353003340454	10.2592801621694
92	0	13	64	0	53	0	120	0.923047270975076	1	0.0794614011108351	10.2777223170449
93	1	136	136	0	51	0	122	0.907074080023449	1	0.0298923071410894	10.3217462999684
94	1	18	130	0	50	0	122	1.21116321301088	1	0.0462511528547321	10.3478437490739
95	0	3	67	1	49	0	120	0.66507361800177	1	0.116069727456804	10.3770475798729
96	1	23	37	0	48	0	120	0.834271561994683	0	0.121287298428419	-20.8193540066379
97	1	49	101	0	51	0	122	0.655188001983333	1	0.105269610963032	10.3217462999684
98	0	51	38	1	50	0	120	0.753674604988191	1	0.0467646010961944	10.3478437490739
99	1	139	66	0	49	0	122	1.31219329801388	1	0.0876776328224867	10.3770475798729
100	1	25	63	1	48	0	122	0.713113195961341	1	0.0893705900297725	10.409677003319
101	0	76	146	0	48	0	120	0.685236954013817	1	0.0994287753860608	10.409677003319
102	0	70	147	0	45	0	120	0.768732252006885	1	0.0449171588009272	10.5317515270736
103	1	79	95	1	43	0	120	1.16174327000044	0	0.0597786754736728	-21.275028696595
104	0	128	57	1	51	0	120	0.851158968987875	1	0.061161105529717	10.3217462999684
105	1	26	38	1	48	0	122	0.557346466986928	1	0.0285999342416937	10.409677003319
106	0	24	78	0	46	0	120	1.68422280799132	1	0.0702545578559392	10.4866337303374
107	0	8	67	1	44	0	120	0.558350448962301	1	0.0550824690011165	10.5818819156885
108	1	139	68	1	41	0	120	0.589049174042884	0	0.0318741235635009	-21.5349428550014
109	1	51	84	0	48	0	120	0.8098133970052	0	0.0923357578217004	-20.8193540066379
110	0	94	6	1	55	0	120	0.967630430997815	1	0.0554524491924541	10.2429096908112
111	1	49	146	1	53	0	122	0.597789744962938	1	0.0318812490841231	10.2777223170449
112	0	37	78	0	51	0	120	1.23438791598892	1	0.0807012217174229	10.3217462999684
113	1	49	76	0	49	0	122	1.10334217996569	1	0.0787504392154099	10.3770475798729
114	1	7	47	1	47	0	122	0.59250248799799	1	0.0719165715570462	10.4460795824527
115	0	80	137	0	45	0	120	0.780667261977214	1	0.0698861479229998	10.5317515270736
116	0	139	134	0	43	0	120	0.650796586007345	1	0.044024565717908	10.6375143482975
117	1	118	76	0	41	0	120	0.647520119964611	0	0.0959252966465789	-21.5349428550014
118	0	100	59	0	47	0	122	0.897470170981251	0	0.0557503864990064	-20.8921591649053
119	0	25	110	1	53	0	120	0.708008431014605	1	0.0905657603274095	10.2777223170449
120	1	124	99	0	51	0	122	1.32423569197999	1	0.0437712181759359	10.3217462999684
121	1	66	78	0	49	0	120	1.44397609704174	0	0.0715520169977248	-20.7540951597459
122	1	60	13	1	54	0	122	1.07966734300135	1	0.0271505247965802	10.2592801621694
123	0	113	88	0	53	0	120	1.0488757850253	1	0.0348130233096926	10.2777223170449
124	0	124	24	1	51	0	120	1.51683153799968	1	0.0863464716818237	10.3217462999684
125	0	93	20	1	49	0	120	1.30615374899935	1	0.0531779407932414	10.3770475798729
126	1	89	149	0	48	0	122	1.74892960599391	1	0.0684774397317887	10.409677003319
127	1	18	75	0	46	0	122	0.869685797020793	1	0.0129852883385799	0
128	1	34	146	0	44	0	122	0.975081043958198	1	0.0612415392406756	10.5818819156885
129	1	52	18	0	43	0	122	0.878260764991865	1	0.0490186621284044	10.6375143482975
130	0	45	126	0	41	0	120	0.502968934015371	1	0.0347861457859421	10.7674714275007
131	1	72	62	0	40	0	120	0.537126120005269	0	0.040247509675471	-21.6860369404312
132	1	145	80	0	45	0	122	0.568529720010702	1	0.040753274283535	10.5317515270736
133	0	13	148	0	43	0	120	0.615903188998345	1	0.108624835507888	10.6375143482975
134	0	32	101	0	42	0	120	1.27691924897954	1	0.111731249777628	10.6991829678433
135	1	111	35	1	40	0	120	0.933513757947367	0	0.0729372313926219	-21.6860369404312
136	1	60	47	1	45	0	122	0.765137946989853	1	0.0240973820339347	0
137	1	140	30	1	43	0	122	0.604693025001325	1	0.0135550745503566	0
138	0	22	32	0	42	0	120	0.633554315019865	1	0.0428109525625347	10.6991829678433
139	0	81	65	1	40	0	120	0.73459853802342	1	0.13036830708654	10.8430184702156
140	0	135	68	0	39	0	120	0.846018893003929	1	0.0420814321029242	10.9265244157653
141	1	44	96	0	38	0	120	0.761022416991182	0	0.0491398965008355	-22.0375174668248
142	1	127	84	0	42	0	120	0.928596149955411	0	0.0459209262231257	-21.3983659356866
143	0	92	103	1	46	0	122	0.632023901038337	0	0.0577067441061087	-20.9732674606748
144	0	85	7	0	50	0	120	0.571426832000725	1	0.0632066972022766	10.3478437490739
145	0	18	52	1	48	0	120	1.07320676901145	1	0.0916114218416344	10.409677003319
146	0	6	87	1	47	0	120	1.15612327400595	1	0.0605643341403127	10.4460795824527
147	1	84	65	1	46	0	122	1.1625478809583	1	0.0453156417602379	10.4866337303374
148	1	132	94	0	45	0	122	0.704724626964889	1	0.072253815294805	10.5317515270736
149	1	134	15	1	43	0	122	1.70494556601625	1	0.0242183843103257	0
150	1	99	47	1	42	0	120	1.22769219795009	0	0.0683808932694759	-21.3983659356866
151	0	19	46	0	46	0	120	0.606760827009566	1	0.102819330020374	10.4866337303374
152	0	133	11	0	45	0	120	0.899967704957817	1	0.0837473864485357	10.5317515270736
153	0	120	15	0	43	0	120	1.02973355300492	1	0.00123790596561599	0
154	0	101	30	1	42	0	122	1.20120390399825	0	0.0295630363185896	-21.3983659356866
155	0	47	6	1	46	0	120	1.16671419300837	1	0.0405758927725037	10.4866337303374
156	0	89	76	1	45	0	120	1.0458046720014	1	0.0398845347543235	10.5317515270736
157	0	85	78	1	44	0	120	0.857032490021084	1	0.0629348091877923	10.5818819156885
158	0	80	68	0	42	0	120	0.651775136007927	1	0.104967656038641	10.6991829678433
159	0	110	125	0	41	0	120	0.798791159002576	1	0.0833230899138469	10.7674714275007
160	0	103	113	1	40	0	120	1.0034363429877	1	0.0568334472844733	10.8430184702156
161	1	58	52	1	39	0	120	0.785991312004626	0	0.0491424471770474	-21.8530488315306
162	0	98	64	1	42	0	122	1.05437642900506	0	0.0571940062850164	-21.3983659356866
163	1	100	109	1	45	0	120	1.07449967600405	0	0.0489783267056035	-21.0635030541472
164	1	17	98	0	49	0	120	0.980666195973754	0	0.100315779374609	-20.7540951597459
165	1	55	99	0	52	0	122	0.698395678016823	1	0.0772477423683786	10.2984621447649
166	1	120	120	1	51	0	120	1.36261717800517	0	0.128314985667274	-20.6434925999369
167	0	48	107	1	54	0	120	0.950830215995666	1	0.0618653451130702	10.2592801621694
168	1	68	12	0	53	0	120	0.936433391005266	0	0.050708765515138	-20.5554446340898
169	0	9	32	0	56	0	120	0.696286223013885	1	0.091468263453968	10.2284040715341
170	1	17	145	1	55	0	122	0.936635640973691	1	0.0652680154033606	10.2429096908112
171	1	99	88	0	54	0	122	0.672858660982456	1	0.0360067904730112	10.2592801621694
172	0	134	125	0	53	0	120	0.580175293027423	1	0.0850307604930265	10.2777223170449
173	0	42	55	0	52	0	122	0.992532823001966	0	0.132782109618626	-20.5969242895297
174	0	30	148	0	55	0	120	0.725954763009213	1	0.0855694738844192	10.2429096908112
175	1	8	57	0	54	0	122	1.26975754904561	1	0.0718474436611278	10.2592801621694
176	1	52	116	1	53	0	122	0.76917406899156	1	0.0645053245290035	10.2777223170449
177	0	124	39	0	52	0	120	1.15128938195994	1	0.0353394530304791	10.2984621447649
178	1	128	56	1	51	0	122	0.679790496011265	1	0.0907783801820193	10.3217462999684
179	1	46	120	0	50	0	122	0.688247654994484	1	0.0807383699747757	10.3478437490739
180	1	107	98	0	49	0	122	0.610227023018524	1	0.0750044809711085	10.3770475798729
181	1	72	4	0	48	0	120	0.694509827997535	0	0.098222957846346	-20.8193540066379
182	0	93	59	1	51	0	120	0.6411853620084	1	0.0643013414938	10.3217462999684
183	0	38	144	0	50	0	120	1.07644333300414	1	0.0628393283233837	10.3478437490739
184	1	112	128	1	49	0	122	1.2213277730043	1	0.0609339743355236	10.3770475798729
185	0	103	2	1	48	0	120	1.23403234302532	1	0.0490095145994214	10.409677003319
186	0	33	37	0	47	0	122	1.36638260702603	0	0.084282983136718	-20.8921591649053
187	0	28	40	0	50	0	120	0.773068950977176	1	0.0609169794079166	10.3478437490739
188	0	97	143	1	49	0	120	0.93719891802175	1	0.0747425807963879	10.3770475798729
189	1	146	30	0	48	0	120	0.985726209997665	0	0.071685965006816	-20.8193540066379
190	0	147	52	1	51	0	122	1.79896204301622	0	0.100354625612998	-20.6434925999369
191	0	39	131	1	53	0	120	0.65945770899998	1	0.102189069467797	10.2777223170449
192	1	54	2	0	52	0	122	0.671304831979796	1	0.0726089627900507	10.2984621447649
193	1	116	66	1	52	0	120	1.40217514499091	0	0.044620881474021	-20.5969242895297
194	0	61	87	0	54	0	120	1.99817506200634	1	0.053752257447211	10.2592801621694
195	1	86	131	1	53	0	122	0.866866872995161	1	0.0710591171231999	10.2777223170449
196	1	142	82	0	53	0	122	0.590260995028075	1	0.110462585285728	10.2777223170449
197	1	150	114	0	52	0	122	0.75542854401283	1	0.0962203537238051	10.2984621447649
198	0	40	70	0	51	0	122	0.554338401998393	0	0.0394063936640051	-20.6434925999369
199	0	81	136	0	53	0	120	0.656641131034121	1	0.113354156584481	10.2777223170449
200	1	91	32	1	53	0	122	1.11608395498479	1	0.0675900748696476	10.2777223170449
201	1	140	122	1	53	0	122	1.19681846402818	1	0.0690890368629547	10.2777223170449
202	1	118	128	0	50	0	120	1.02835716301342	0	0.0749162796553455	-20.6956874981478
203	0	14	97	0	58	0	120	1.04152717400575	1	0.0500683095056509	10.2042476265191
204	1	53	32	1	56	0	122	0.844569191976916	1	0.0822259888452631	10.2284040715341
205	1	83	27	0	54	0	120	1.17680370097514	0	0.0569472658919462	-20.5185603243388
206	1	90	116	0	61	0	122	0.62940948898904	1	0.05509446459757	10.1777839839948
207	1	142	109	0	59	0	122	0.691464211966377	1	0.0706847920726653	10.1942669347537
208	1	103	40	1	57	0	122	1.27525267400779	1	0.05402551476015	10.2155742425688
209	1	48	136	0	54	0	122	0.877302139007952	1	0.103576628829172	10.2592801621694
210	0	53	118	1	52	0	120	0.846189587027766	1	0.0568083867480474	10.2984621447649
211	0	108	7	0	50	0	120	0.642743791046087	1	0.0648489033581182	10.3478437490739
212	0	85	57	1	48	0	120	0.732253053982276	1	0.0630765479277719	10.409677003319
213	1	93	23	1	46	0	122	1.06121746799909	1	0.053385573714342	10.4866337303374
214	0	131	111	0	44	0	120	0.839197436987888	1	0.0405121294053585	10.5818819156885
215	0	56	90	1	42	0	120	0.6272287130123	1	0.0557288978657372	10.6991829678433
216	0	40	10	1	40	0	120	0.645917362009641	1	0.0536549387516176	10.8430184702156
217	0	32	143	0	38	0	120	0.537906700978056	1	0.0173556616005496	0
218	0	103	86	0	36	0	120	0.85049204697134	1	0.0863771860771186	11.2328909210242
219	0	149	14	1	34	0	120	0.64464771898929	1	0.0601471182247313	11.4933327992393
220	1	88	40	1	32	0	120	0.929138580977451	0	0.0383120524933834	-23.6197421158065
221	0	70	44	0	38	0	120	0.896890383970458	1	0.132613570669338	11.0187587334124
222	1	114	128	1	36	0	120	0.706105130026117	0	0.0504818739388358	-22.4657818420483
223	0	24	31	1	42	0	120	1.45819045999087	1	0.045027146786845	10.6991829678433
224	1	120	60	0	40	0	120	0.909658158023376	0	0.032906792816811	-21.6860369404312
225	0	24	22	0	45	0	120	1.0371083500213	1	0.0836761711742061	10.5317515270736
226	1	63	93	1	43	0	122	0.577870911976788	1	0.0740287077452242	10.6375143482975
227	0	40	40	0	42	0	120	0.736116360989399	1	0.0694170257288995	10.6991829678433
228	0	132	57	1	40	0	120	1.00805611297255	1	0.0557077935219815	10.8430184702156
229	0	73	79	1	39	0	122	1.46849446702981	0	0.0610846860114272	-21.8530488315306
230	0	82	113	1	44	0	120	0.558944058022462	1	0.0608745461252595	10.5818819156885
231	0	60	119	1	42	0	120	0.478165554988664	1	0.0436136404203928	10.6991829678433
232	0	140	34	0	40	0	120	0.856088871019892	1	0.118383997496893	10.8430184702156
233	1	102	111	1	39	0	120	0.761323877959512	0	0.0796804999003833	-21.8530488315306
234	0	100	57	0	44	0	120	1.28115366603015	1	0.0234986565996558	0
235	1	48	108	1	42	0	122	0.682730066007935	1	0.0651417660628939	10.6991829678433
236	0	150	102	1	41	0	120	0.980632266029716	1	0.0553352816959569	10.7674714275007
237	1	112	72	1	39	0	120	1.45055063802283	0	0.0523931802969305	-21.8530488315306
238	0	150	53	0	44	0	120	0.893788986024447	1	0.0443049978130963	10.5818819156885
239	1	101	2	1	42	0	122	1.11929425201379	1	0.0708812039691521	10.6991829678433
240	1	20	68	0	41	0	120	1.03166920901276	0	0.0411956197124754	-21.5349428550014
241	1	136	110	0	45	0	120	0.875945324019995	0	0.0275405048737623	-21.0635030541472
242	1	129	111	0	49	0	122	0.766857825045008	1	0.0299619493408502	10.3770475798729
243	1	106	119	1	48	0	122	0.805248664983083	1	0.0588792969812776	10.409677003319
244	0	52	107	0	47	0	122	1.11264745600056	0	0.0712415053312765	-20.8921591649053
245	0	137	14	1	51	0	120	0.61791438300861	1	0.0678071368653647	10.3217462999684
246	0	65	33	1	49	0	120	0.703378275036812	1	0.0458146370287866	10.3770475798729
247	1	144	48	0	48	0	122	0.944467245019041	1	0.0942209560524564	10.409677003319
248	1	16	33	1	47	0	120	0.751981526962481	0	0.0765696350548331	-20.8921591649053
249	0	4	107	0	51	0	120	0.806139825028367	1	0.0494689001043302	10.3217462999684
250	1	65	63	0	49	0	120	1.32355817902135	0	0.114831767716472	-20.7540951597459
251	1	92	98	0	53	0	122	0.698917275993153	1	0.116022652031237	10.2777223170449
252	1	11	36	1	52	0	120	0.661205718002748	0	0.0595574206620734	-20.5969242895297
253	0	71	55	1	56	0	120	1.19965205801418	1	0.0449030284004355	10.2284040715341
254	1	5	142	0	54	0	122	0.700059744005557	1	0.0754670218585954	10.2592801621694
255	0	85	63	1	53	0	122	1.04484866099665	0	0.079054486270005	-20.5554446340898
256	0	35	131	1	57	0	120	1.00066646601772	1	0.0712534992195436	10.2155742425688
257	0	80	58	1	56	0	120	1.07125156797701	1	0.0781450554605884	10.2284040715341
258	1	149	68	1	54	0	120	0.936410530994181	0	0.060062764467101	-20.5185603243388
259	1	97	23	1	58	0	122	0.727705341007095	1	0.0973706626005782	10.2042476265191
260	0	27	132	0	57	0	122	1.00776308600325	0	0.021180585452804	-0
261	1	21	71	1	60	0	122	0.741530721017625	1	0.0821319738200716	10.1854890507786
262	0	27	86	0	59	0	120	1.09369921695907	1	0.0554300705509532	10.1942669347537
263	1	19	131	0	58	0	120	1.10274527402362	0	0.0516546737348061	-20.4084952530382
264	1	52	137	1	61	0	120	0.688011202029884	0	0.0678091733687132	-20.3555679679896
265	1	76	82	0	65	0	120	1.60811457596719	0	0.0821406604685137	-20.3109960907989
266	0	68	86	1	68	0	120	0.677874065004289	1	0.092708056575642	10.1452961872043
267	1	116	5	1	67	0	120	0.943920335033908	0	0.0728077876120984	-20.2964424394063
268	0	135	99	0	70	0	120	0.878001253993716	1	0.101161329958392	10.1405926736671
269	0	73	43	1	69	0	122	1.23244641796919	0	0.0682689935005489	-20.2855398890023
270	1	7	103	1	72	0	122	0.828446435974911	1	0.118219114353522	10.1371129716293
271	0	115	131	0	71	0	120	0.616293461003806	1	0.0505654629164328	10.1387201003248
272	0	43	82	1	70	0	120	1.58108860999346	1	0.0508019389237587	10.1405926736671
273	1	122	26	0	69	0	120	0.714753676962573	0	0.072842147007278	-20.2855398890023
274	0	40	27	0	72	0	120	0.708221624023281	1	0.0684667818401423	10.1371129716293
275	1	140	116	1	71	0	122	0.732970240002032	1	0.0761200439931624	10.1387201003248
276	1	74	4	1	70	0	122	1.17147228500107	1	0.0500154179569597	10.1405926736671
277	1	73	134	1	69	0	120	0.63494553003693	0	0.0930693597179945	-20.2855398890023
278	0	146	8	0	72	0	120	0.613573407987133	1	0.0961732979694793	10.1371129716293
279	0	96	125	0	71	0	120	0.883339641033672	1	0.0934735580515649	10.1387201003248
280	0	23	114	1	70	0	120	0.565039423992857	1	0.118199312455407	10.1405926736671
281	0	67	148	0	69	0	120	0.619948452978861	1	0.100678018406312	10.1427699445011
282	1	18	31	1	68	0	122	0.583887655986473	1	0.0920200737431565	10.1452961872043
283	0	47	98	1	67	0	120	0.629100152000319	1	0.102621325829422	10.1482212197032
284	1	49	10	1	66	0	122	0.92237483599456	1	0.0520779287057672	10.1516009638473
285	1	141	146	0	65	0	122	1.14541190600721	1	0.102455604358868	10.1554980453995
286	1	97	95	0	65	0	122	0.689653067034669	1	0.0892761042973196	10.1554980453995
287	0	124	11	0	64	0	120	0.514134576020297	1	0.0654396328482074	10.1599824349267
288	1	25	101	1	63	0	120	1.21905340498779	0	0.0915090740426679	-20.3302642619318
289	1	26	13	0	65	0	120	0.759059944015462	0	0.0997429949002884	-20.3109960907989
290	1	107	15	1	68	0	122	0.495211542991456	1	0.0374949320627588	10.1452961872043
291	1	20	19	1	67	0	122	0.856465637043584	1	0.082495317662031	10.1482212197032
292	0	56	115	0	66	0	120	0.890411255997606	1	0.110061096909716	10.1516009638473
293	0	4	21	1	65	0	120	0.587589047965594	1	0.0552811145052735	10.1554980453995
294	1	68	22	0	65	0	122	1.16914504498709	1	0.112615258977064	10.1554980453995
295	1	134	80	0	64	0	120	0.975663428020198	0	0.0910357152589356	-20.3199648698534
296	0	108	82	0	66	0	120	0.868795872025657	1	0.0470758112584554	10.1516009638473
297	1	123	74	1	65	0	122	0.664501218998339	1	0.0389278012551785	10.1554980453995
298	1	143	74	1	65	0	122	0.858196108019911	1	0.101036944611393	10.1554980453995
299	0	42	92	1	64	0	120	1.04599785601022	1	0.0484580808467143	10.1599824349267
300	1	44	51	1	63	0	120	0.720584544003941	0	0.0798092957964754	-20.3302642619318
301	0	58	25	0	63	0	122	1.04991348099429	0	0.0919033153309464	-20.3302642619318
302	1	135	131	1	71	0	122	1.02340778004145	1	0.0850402726532706	10.1387201003248
303	0	46	118	0	68	0	120	0.714085281011648	1	0.0756148753783794	10.1452961872043
304	1	51	124	1	66	0	122	1.14153744798386	1	0.0855063544198541	10.1516009638473
305	0	19	87	0	64	0	120	0.604662604047917	1	0.0482811145521531	10.1599824349267
306	0	11	110	0	62	0	120	0.818381389020942	1	0.0719421774673563	10.1710338869944
307	1	136	6	1	59	0	122	0.758603136986494	1	0.0365261430686056	10.1942669347537
308	0	62	1	0	57	0	120	0.71702537604142	1	0.0634360514846529	10.2155742425688
309	0	27	73	0	55	0	120	1.04579429799924	1	0.0558958623487075	10.2429096908112
310	1	119	25	1	53	0	122	0.873712968023028	1	0.0542591938237544	10.2777223170449
311	0	95	123	1	50	0	122	0.866090529016219	0	0.073877352770252	-20.6956874981478
312	0	15	122	0	57	0	122	1.06113302800804	0	0.0477750832710908	-20.4311484851376
313	1	135	29	1	63	0	122	0.777129361988045	1	0.0262975573233844	10.1651321309659
314	0	117	102	0	62	0	120	0.693246820999775	1	0.0651811729626952	10.1710338869944
315	1	150	44	0	60	0	122	0.895279367978219	1	0.107023164829194	10.1854890507786
316	1	88	63	0	58	0	122	0.952443364018109	1	0.0790626512367741	10.2042476265191
317	1	97	85	1	56	0	122	0.792210832005367	1	0.0649920056220475	10.2284040715341
318	1	129	13	0	54	0	122	0.660540987970307	1	0.0526130591378748	10.2592801621694
319	1	130	150	1	52	0	122	0.783745592983905	1	0.0650483413968251	10.2984621447649
320	0	39	114	0	50	0	120	0.782398594019469	1	0.0233000302278636	0
321	1	128	38	1	48	0	122	0.915639655955601	1	0.0273005983569999	10.409677003319
322	1	93	125	0	46	0	122	0.963956727006007	1	0.0523734413439779	10.4866337303374
323	0	32	51	0	45	0	120	0.667764186975546	1	0.0605625974108494	10.5317515270736
324	0	40	38	1	43	0	122	0.781279627990443	0	0.0636083082915049	-21.275028696595
325	1	112	13	0	48	0	122	1.25900214799913	1	0.0923222324773995	10.409677003319
326	0	18	57	0	47	0	120	0.973675942979753	1	0.111442068813709	10.4460795824527
327	1	59	80	0	45	0	122	0.748950479028281	1	0.0447845091896315	10.5317515270736
328	0	125	52	1	43	0	122	1.19625611900119	0	0.0295801141886667	-21.275028696595
329	1	43	27	0	48	0	122	1.03353875695029	1	0.0435653958966745	10.409677003319
330	0	141	110	1	47	0	120	0.589766448945738	1	0.0770079887896214	10.4460795824527
331	0	105	55	1	45	0	120	0.85905199701665	1	0.0493623995580719	10.5317515270736
332	0	34	36	1	44	0	120	0.565682005952112	1	0.0305896722744599	10.5818819156885
333	0	95	143	0	42	0	120	0.730868893035222	1	0.0805784211749642	10.6991829678433
334	1	36	109	0	41	0	122	0.962946954998188	1	0.0963964077808763	10.7674714275007
335	1	78	47	0	39	0	122	0.761412918975111	1	0.0303142895814462	10.9265244157653
336	0	67	100	0	38	0	120	0.712251293996815	1	0.0675424894224779	11.0187587334124
337	1	9	86	1	36	0	122	1.73735991399735	1	0.0131049106329545	0
338	0	26	116	1	35	0	120	0.538003302994184	1	0.0514619320664068	11.3567614963619
339	1	40	43	0	33	0	122	0.576505995006301	1	0.0655630455004801	11.6438897945462
340	1	136	18	0	32	0	122	0.998951936024241	1	0.0451340441103696	11.8098710579033
341	0	94	118	0	31	0	120	0.804321667994373	1	0.0289544937274766	11.9928937619321
342	1	133	18	1	29	0	122	1.08922630996676	1	0.0364973599998202	12.4176125654648
343	0	89	142	0	28	0	120	1.3134274110198	1	0.0502484453949379	12.6637412620617
344	0	68	25	1	27	0	120	1.48279860202456	1	0.0660248592276647	12.935876128632
345	1	84	113	1	25	0	120	1.70002837199718	0	0.0768003540942717	-27.1422747560566
346	0	42	136	1	29	0	120	1.02185487595852	1	0.0597880344516284	12.4176125654648
347	1	47	43	1	28	0	122	1.12938246299746	1	0.0463999091270215	12.6637412620617
348	0	83	38	1	27	0	120	0.625153597968165	1	0.058124090425316	12.935876128632
349	0	14	48	0	25	0	122	0.765594516007695	0	0.0265577068349726	-27.1422747560566
350	1	114	102	0	29	0	122	0.939847850007936	1	0.0653078031293184	12.4176125654648
351	0	102	13	1	28	0	120	0.85203496797476	1	0.0437542282472387	12.6637412620617
352	0	79	1	1	26	0	120	0.886247036978602	1	0.032029749114869	13.2371361035193
353	0	123	14	0	25	0	122	1.23256621800829	0	0.00792627079300598	-0
354	1	56	18	0	29	0	120	0.972836116037797	0	0.0346227584295216	-24.8352251309296
355	0	150	58	0	32	0	120	0.810949679987971	1	0.0859513212126267	11.8098710579033
356	1	127	8	0	31	0	122	0.767843588022515	1	0.0311791489294447	11.9928937619321
357	0	75	34	1	30	0	120	0.725499304011464	1	0.059421882076473	12.1947838360194
358	1	148	47	1	29	0	122	1.13421424699482	1	0.0167244990765856	0
359	1	18	20	0	28	0	122	1.03025511500891	1	0.0325259620299458	12.6637412620617
360	1	139	69	1	26	0	120	0.945901270024478	0	0.100844591923467	-26.4742722070386
361	0	140	105	0	30	0	120	0.681251959002111	1	0.0620218807737907	12.1947838360194
362	1	59	20	0	29	0	120	1.21023777604569	0	0.0415296283889635	-24.8352251309296
363	1	69	44	0	32	0	120	0.999101658002473	0	0.0587671348829703	-23.6197421158065
364	0	88	35	0	35	0	120	0.740673623979092	1	0.0327282460793245	11.3567614963619
365	0	55	24	1	34	0	120	0.724454662995413	1	0.0280482166723575	11.4933327992393
366	0	17	85	1	33	0	120	0.629251479986124	1	0.0316473373913201	11.6438897945462
367	0	69	39	0	32	0	120	0.584734216041397	1	0.0734249064676314	11.8098710579033
368	0	27	144	1	31	0	120	0.534349163994193	1	7.73730408212013e-05	0
369	1	115	32	0	30	0	122	0.846110653015785	1	0.0498278448276156	12.1947838360194
370	1	19	116	0	29	0	122	0.784761969989631	1	0.0647828771272198	12.4176125654648
371	0	113	3	1	28	0	122	0.959341112989932	0	0.0205255536445152	-0
372	0	89	115	1	31	0	120	0.646331755036954	1	0.0339674359271088	11.9928937619321
373	0	85	31	0	30	0	120	0.771011014992837	1	0.114262358374651	12.1947838360194
374	0	2	141	0	29	0	120	0.711653551028576	1	0.100804825012781	12.4176125654648
375	1	149	104	0	28	0	120	0.800785839965101	0	0.0283592899580369	-25.3274825241235
376	1	137	100	1	31	0	122	0.862620523024816	1	0.0231481370756673	0
377	0	60	94	1	30	0	120	0.67417003097944	1	0.0485712581661066	12.1947838360194
378	0	48	103	0	29	0	120	1.18709959898842	1	0.012869695397136	0
379	0	54	41	0	28	0	120	1.37770687695593	1	0.0551858611227742	12.6637412620617
380	1	80	75	0	27	0	122	0.663022038992494	1	0.0607265230886306	12.935876128632
381	0	29	3	1	26	0	120	0.786104583996348	1	0.0775666555305168	13.2371361035193
382	1	27	18	1	25	0	122	1.18414144200506	1	0.0404832142509902	13.5711373780283
383	1	109	133	0	25	0	122	0.677239896962419	1	0.0464922743728026	13.5711373780283
384	1	115	40	0	24	0	122	0.599002928007394	1	0.0364577614545395	13.942099533704
385	0	86	115	1	23	0	120	0.556230248999782	1	0.0166033070191623	0
386	0	108	118	1	22	0	120	0.683851069014054	1	0.00485751938545478	0
387	1	28	77	1	21	0	122	0.973415446991567	1	0.0561803441552133	15.3310969341241
388	1	6	19	1	20	0	120	1.29142685898114	0	0.0405942329062209	-31.8195092369016
389	0	20	44	0	23	0	120	0.677068242977839	1	0.0781970181104049	14.3549800010502
390	0	106	56	1	22	0	120	0.999042893003207	1	0.0468619662967624	14.8156460292092
391	0	47	22	0	21	0	122	1.09199249302037	0	0.0246970954772257	-0
392	1	23	45	1	24	0	122	0.743233851972036	1	0.0504581944375588	13.942099533704
393	0	8	24	0	23	0	120	0.974650803022087	1	0.0337444034109574	14.3549800010502
394	0	103	76	1	22	0	122	1.15620415995363	0	0.0211193740533891	-0
395	1	92	74	1	25	0	120	0.962806100957096	0	0.0326744086480095	-27.1422747560566
396	1	36	28	1	27	0	120	1.36952974897576	0	0.000196760498783213	-0
397	1	77	49	0	29	0	122	0.88103313697502	1	0.0296360930124216	12.4176125654648
398	0	20	148	0	28	0	120	1.95384820201434	1	0.116320648073674	12.6637412620617
399	1	24	135	1	28	0	122	0.857103835965972	1	0.0103401568696636	0
400	0	64	128	0	27	0	122	1.10103359201457	0	0.0731051695255584	-25.871752257264
401	0	139	88	0	27	0	120	0.650909286981914	1	0.030324999492195	12.935876128632
402	1	119	66	0	24	0	122	1.19951112300623	1	0.0461332853547305	13.942099533704
403	0	12	121	0	22	0	120	0.630788017995656	1	0.0201471689994061	0
404	0	99	36	1	19	0	120	0.716237163054757	1	0.0311203383511582	16.561848118438
405	1	29	45	0	17	0	122	0.940838633978274	1	0.0119901257927098	0
406	0	4	21	0	14	0	120	0.646505703974981	1	0.0160416247705697	0
407	0	51	52	1	12	0	120	0.609003256016877	1	7.45241224816582e-05	0
408	0	100	150	1	9	0	122	0.542965265049133	0	1.82688186190016e-07	-0
409	1	58	46	0	17	0	120	0.758122504979838	0	0.0687304935365686	-36.2791559407943
410	1	45	79	0	24	0	120	0.677592833992094	0	0.0186842076329528	-0
411	0	115	120	0	30	0	120	1.19214701896999	1	0.0605271696069132	12.1947838360194
412	1	96	121	0	28	0	122	0.700989992008545	1	0.00597550295136143	0
413	1	46	43	1	26	0	122	1.1110015430022	1	0.0909509916502889	13.2371361035193
414	0	106	26	0	24	0	120	0.59137311403174	1	0.0121915300073199	0
415	0	125	41	0	22	0	122	1.00567117001629	0	0.0428524494344937	-29.6312920584185
416	0	128	4	0	28	0	120	0.657028979971074	1	0.0160520746612229	0
417	1	37	115	0	26	0	122	0.645196327997837	1	0.0333995884567993	13.2371361035193
418	0	18	123	0	24	0	122	1.08050112699857	0	0.0465779651700098	-27.884199067408
419	1	141	133	1	30	0	120	0.562833605043124	0	0.0526280094302025	-24.3895676720387
420	0	75	106	0	36	0	120	0.920158792985603	1	0.0824030383609643	11.2328909210242
421	1	15	139	0	34	0	120	1.23275735299103	0	0.0636628321466703	-22.9866655984786
422	0	63	127	0	39	0	120	0.933669191028457	1	0.111033604553995	10.9265244157653
423	1	125	10	1	38	0	122	1.14061644201865	1	0.0310568968038984	11.0187587334124
424	1	87	134	0	36	0	122	1.05334399297135	1	0.0687935391176217	11.2328909210242
425	1	61	137	1	34	0	120	1.04098123096628	0	0.0441720295471485	-22.9866655984786
426	1	15	19	1	39	0	120	1.25260293000611	0	0.0120994013475479	-0
427	0	110	123	1	44	0	120	1.3102785400115	1	0.0461730260293432	10.5818819156885
428	1	97	68	1	42	0	122	0.935873805021401	1	0.0212695901301219	0
429	0	52	54	0	41	0	122	0.743974769022316	0	0.0502616628884618	-21.5349428550014
430	1	8	94	0	45	0	120	1.11135172296781	0	0.0664533027678741	-21.0635030541472
431	0	123	78	0	50	0	120	0.856434406014159	1	0.0298335338641493	10.3478437490739
432	0	17	32	1	48	0	120	0.594765744986944	1	0.0685332489717316	10.409677003319
433	0	10	148	0	47	0	120	0.991818251961377	1	0.00142390834531068	0
434	0	122	132	1	45	0	120	0.812225203961134	1	0.048011357614717	10.5317515270736
435	0	139	17	0	44	0	122	0.6184532570187	0	0.0238323168082599	-0
436	0	21	74	0	48	0	120	0.974559592024889	1	0.0479921384459331	10.409677003319
437	1	82	138	0	47	0	122	0.85975183499977	1	0.0389598228542336	10.4460795824527
438	1	40	37	1	45	0	122	1.32783732999815	1	0.0572914492901722	10.5317515270736
439	0	13	139	0	44	0	120	0.663184439006727	1	0.098990571126281	10.5818819156885
440	0	44	15	1	43	0	120	0.729800340021029	1	0.0570429386658021	10.6375143482975
441	0	139	46	1	42	0	120	0.713226839958224	1	0.0360038276342384	10.6991829678433
442	1	50	64	0	40	0	122	0.722539882001001	1	0.0760950308900504	10.8430184702156
443	0	24	96	0	39	0	120	1.05076835502405	1	0.0510390756080768	10.9265244157653
444	0	141	51	0	38	0	120	0.81359590095235	1	0.110400069383859	11.0187587334124
445	0	97	83	1	37	0	120	0.92175722902175	1	0.101940709294738	11.1205689162718
446	0	21	117	1	35	0	120	1.39398923498811	1	0.0660573453274216	11.3567614963619
447	0	40	87	0	34	0	120	0.886738498986233	1	0.0641998448631644	11.4933327992393
448	0	14	74	1	33	0	120	0.776644984027371	1	0.0100299782103638	0
449	1	121	1	0	32	0	120	0.672158592031337	0	0.0281151825249065	-23.6197421158065
450	1	147	30	1	35	0	120	0.817318071029149	0	0.0238911133554233	-0
451	1	84	17	0	39	0	122	0.959113055025227	1	0.068536965177973	10.9265244157653
452	0	87	55	0	38	0	122	1.11657109396765	0	0.0397621421216335	-22.0375174668248
453	0	75	32	1	41	0	120	0.766412776953075	1	0.0660039383207808	10.7674714275007
454	0	118	95	1	40	0	120	0.676545099006034	1	0.129310797381292	10.8430184702156
455	1	104	14	0	39	0	122	1.51907573099015	1	0.0366619443186816	10.9265244157653
456	0	122	2	0	38	0	120	0.599052546021994	1	0.0533198564587518	11.0187587334124
457	0	150	1	1	37	0	120	1.33960844104877	1	0.0502328649544046	11.1205689162718
458	1	70	21	1	35	0	122	1.20462248596596	1	0.0564818114007575	11.3567614963619
459	1	68	38	1	34	0	122	1.4486830260139	1	0.0390330824813066	11.4933327992393
460	1	10	138	0	33	0	120	1.22708912595408	0	0.0448276351904231	-23.2877795890924
461	0	126	58	0	36	0	120	0.943492997961584	1	0.0686696879371766	11.2328909210242
462	1	18	6	0	35	0	122	0.902967999048997	1	0.0486799509821758	11.3567614963619
463	0	52	119	0	34	0	120	0.783989906019997	1	0.0231282777392114	0
464	0	117	139	1	33	0	120	0.638655226037372	1	0.0130098493162305	0
465	1	13	78	0	32	0	122	0.722979521029629	1	0.0452743624607525	11.8098710579033
466	1	40	17	0	31	0	120	0.7216393960407	0	0.0511966293341286	-23.9857875238642
467	1	37	126	0	34	0	120	0.745643851987552	0	0.0229308783895665	-0
468	0	8	150	1	37	0	120	0.642839720007032	1	0.0758065558233269	11.1205689162718
469	1	71	89	1	36	0	122	0.677435674006119	1	0.0554265199842538	11.2328909210242
470	1	24	92	1	35	0	122	0.694786227017175	1	0.068433455821032	11.3567614963619
471	1	149	85	0	34	0	120	0.729278932034504	0	0.0921498348404581	-22.9866655984786
472	0	16	133	0	37	0	120	0.976198034011759	1	0.0532936673664187	11.1205689162718
473	1	143	97	1	36	0	122	0.605925103009213	1	0.0500153328857753	11.2328909210242
474	0	134	81	1	35	0	120	0.794859251996968	1	0.0519971688578971	11.3567614963619
475	0	51	57	0	34	0	120	1.24811912799487	1	0.0159241657675437	0
476	1	63	89	1	33	0	122	0.572130176005885	1	0.124276995417684	11.6438897945462
477	1	51	116	1	33	0	122	0.849793798988685	1	0.0607651732267476	11.6438897945462
478	0	122	6	1	32	0	120	0.741177055984735	1	0.00263133190757058	0
479	0	73	70	0	31	0	120	0.69346024398692	1	0.0475983204528595	11.9928937619321
480	1	126	106	1	30	0	122	1.09321111801546	1	0.0344288447606951	12.1947838360194
481	0	118	97	0	29	0	122	1.51981574698584	0	0.0928097152596853	-24.8352251309296
482	1	93	94	0	32	0	120	0.904364591988269	0	0.074795519364328	-23.6197421158065
483	0	82	130	0	34	0	120	0.649585145001765	1	0.0877626378492139	11.4933327992393
484	1	32	134	1	33	0	120	1.27781917701941	0	0.0501395377293716	-23.2877795890924
485	1	33	52	1	36	0	122	0.919183344987687	1	0.0238563763973611	0
486	1	32	20	1	35	0	122	0.99228782299906	1	0.0507487103388136	11.3567614963619
487	0	27	104	1	34	0	120	0.668694137013517	1	0.0469229129061985	11.4933327992393
488	1	148	23	1	33	0	120	1.20788949704729	0	0.0641089619260947	-23.2877795890924
489	0	31	112	1	36	0	120	0.692451790964697	1	0.0771380518292739	11.2328909210242
490	1	117	44	1	35	0	120	0.652833759959321	0	1.6724319345139e-05	-0
491	1	73	125	0	37	0	122	0.760281675029546	1	0.0876184190558676	11.1205689162718
492	1	78	126	0	37	0	122	0.614530296006706	1	0.0573422664463579	11.1205689162718
493	1	57	111	0	36	0	122	0.532301952014677	1	0.0865518648767539	11.2328909210242
494	0	73	90	0	35	0	120	0.756531111022923	1	0.0981062984160543	11.3567614963619
495	0	120	31	0	34	0	122	0.914424642978702	0	0.114733625192774	-22.9866655984786
496	0	121	32	1	36	0	120	0.939649595005903	1	0.0369773133432014	11.2328909210242
497	0	1	111	0	36	0	120	0.898682020022534	1	0.070472927121371	11.2328909210242
498	1	117	44	1	35	0	120	0.979284556000493	0	0.0299036323064859	-22.7135229927238
499	1	18	102	0	37	0	122	0.633493789006025	1	0.0669254293978312	11.1205689162718
500	1	81	106	1	36	0	122	1.10940477001714	1	0.0344669430481907	11.2328909210242
