Trial	Gender_Face1	Face1_nb	Face2_nb	Right_left_flip	Nb_Bubbles	Overlap_Target	Response	RT	Accuracy	Simi2Target	Trial_Reward
1	0	138	9	1	43	0	120	2.81011934601702	1	0	0
2	1	42	100	1	40	0	120	1.295460644993	0	0	0
3	1	77	9	1	48	0	122	0.737305421964265	1	0	0
4	0	130	89	0	46	0	120	0.59186128701549	1	0	0
5	0	74	102	0	44	0	120	0.532751006889157	1	0	0
6	1	135	144	1	42	0	122	0.547165083000436	1	0	0
7	0	5	71	1	39	0	120	0.746656396077015	1	0	0
8	0	43	14	1	37	0	120	1.08916293003131	1	0	0
9	1	69	39	1	35	0	120	1.33018213708419	0	0	0
10	0	82	119	0	42	0	120	0.592822932987474	1	0	0
11	0	148	137	0	40	0	120	0.693840823951177	1	0	0
12	1	92	77	0	38	0	122	0.598067082930356	1	0	0
13	0	105	115	0	36	0	120	0.955353026045486	1	0	0
14	1	37	50	1	34	0	122	1.19365038804244	1	0	0
15	0	10	132	0	32	0	120	0.596754581900313	1	0	0
16	0	78	14	0	29	0	120	0.73957255796995	1	0	0
17	0	61	121	0	28	0	120	0.705854429979809	1	0	0
18	0	49	132	0	26	0	120	0.81946710892953	1	0	0
19	1	85	26	0	24	0	122	0.607386586954817	1	0	0
20	1	100	22	1	22	0	120	0.739655582001433	0	0	0
21	0	78	123	0	27	0	120	0.658927982090972	1	0	0
22	1	7	110	0	25	0	120	0.868418956990354	0	0	0
23	0	51	38	0	31	0	120	0.630440374952741	1	0	0
24	0	80	81	0	29	0	122	0.55437169293873	0	0	0
25	0	123	11	0	35	0	120	0.887448039022274	1	0	0
26	0	22	16	0	33	0	122	0.616467177052982	0	0	0
27	1	19	3	1	38	0	122	0.6990241270978	1	0	0
28	1	6	8	0	36	0	122	0.603907048003748	1	0	0
29	1	26	7	1	35	0	122	1.03365835803561	1	0	0
30	1	141	102	1	33	0	122	1.46100861695595	1	0	0
31	1	28	90	1	32	0	122	0.630961542017758	1	0	0
32	1	23	45	1	30	0	120	1.19425339694135	0	0	0
33	1	145	148	1	35	0	122	0.662452760036103	1	0	0
34	1	80	36	0	33	0	122	0.737251942977309	1	0	0
35	0	79	33	1	32	0	120	0.671829872066155	1	0	0
36	0	53	16	0	30	0	120	1.08986168901902	1	0	0
37	1	81	26	0	29	0	122	0.682299711043015	1	0	0
38	1	54	42	0	27	0	122	0.6440593409352	1	0	0
39	0	22	19	0	26	0	120	0.830210016109049	1	0	0
40	0	13	36	0	25	0	120	0.705172407091595	1	0	0
41	1	136	128	1	23	0	120	1.46521152893547	0	0	0
42	0	108	86	0	27	0	120	1.24416635406669	1	0	0
43	1	45	68	1	26	0	122	0.558576626935974	1	0	0
44	1	100	146	0	25	0	120	0.916403184994124	0	0	0
45	0	138	73	0	29	0	120	0.74511854397133	1	0	0
46	1	8	4	1	27	0	120	0.738466943032108	0	0	0
47	1	55	2	0	31	0	122	0.519371198024601	1	0	0
48	0	134	48	0	30	0	120	0.56125588004943	1	0	0
49	1	111	81	1	29	0	120	0.639132048003376	0	0	0
50	0	121	6	1	33	0	120	0.673308567958884	1	0	0
51	1	69	92	1	31	0	120	0.744006118038669	0	0	0
52	0	50	24	1	35	0	120	0.785633492050692	1	0	0
53	1	79	84	1	34	0	122	0.662232915055938	1	0	0
54	0	80	113	1	33	0	120	0.560618256917223	1	0	0
55	1	71	66	0	31	0	122	1.28656428598333	1	0	0
56	0	143	61	1	30	0	120	0.703193468041718	1	0	0
57	1	137	100	0	29	0	120	0.693693982088007	0	0	0
58	0	145	117	0	33	0	120	0.727601528982632	1	0	0
59	1	73	149	0	32	0	122	0.583614907925949	1	0	0
60	1	126	39	0	30	0	122	0.708848024951294	1	0	0
61	0	128	38	1	29	0	120	0.652720803045668	1	0	0
62	0	122	141	1	28	0	120	0.559043122921139	1	0	0
63	1	4	44	0	27	0	122	0.96518527797889	1	0	0
64	1	120	142	1	26	0	122	1.25823706202209	1	0	0
65	1	146	42	1	25	0	122	1.11612824094482	1	0	0
66	0	44	117	1	24	0	120	0.787530428962782	1	0	0
67	0	69	31	0	23	0	120	0.650103379040956	1	0	0
68	0	118	106	1	22	0	122	0.715410228003748	0	0	0
69	1	2	95	0	25	0	122	0.667866557021625	1	0	0
70	1	39	12	0	24	0	122	0.973157024011016	1	0	0
71	0	39	37	0	23	0	120	0.531788642983884	1	0	0
72	0	23	13	1	22	0	120	0.699344630935229	1	0	0
73	0	93	52	1	21	0	120	0.962598414975218	1	0	0
74	1	106	117	1	20	0	122	0.625323981046677	1	0	0
75	1	63	13	0	19	0	122	0.684826062992215	1	0	0
76	1	8	49	1	18	0	120	0.638378000003286	0	0	0
77	0	133	45	1	21	0	120	1.2732324419776	1	0	0
78	1	7	33	1	20	0	122	0.659458704991266	1	0	0
79	1	89	1	1	19	0	122	0.644998562987894	1	0	0
80	1	137	8	1	18	0	122	1.99945667304564	1	0	0
81	0	62	90	0	18	0	122	0.971769139985554	0	0	0
82	1	98	117	1	20	0	122	0.584129728027619	1	0	0
83	0	114	114	1	19	0	122	0.734729657997377	0	0	0
84	0	61	65	0	22	0	120	0.965777389006689	1	0	0
85	0	99	125	1	21	0	120	1.21995768905617	1	0	0
86	1	22	34	0	20	0	122	0.592246554093435	1	0	0
87	0	64	93	0	19	0	120	0.812375612091273	1	0	0
88	0	42	36	0	19	0	122	3.2079395710025	0	0	0
89	0	142	42	1	21	0	120	0.916619010036811	1	0	0
90	1	4	142	0	20	0	122	0.580458822078072	1	0	0
91	0	15	9	1	19	0	120	0.609740928048268	1	0	0
92	0	31	100	0	19	0	122	0.509153080987744	0	0	0
93	1	108	24	1	21	0	122	0.980988316005096	1	0	0
94	1	145	140	1	20	0	120	0.586344987968914	0	0	0
95	1	23	5	0	23	0	122	0.863746708957478	1	0	0
96	1	65	124	0	22	0	122	0.857849939959124	1	0	0
97	0	43	90	0	21	0	120	0.588727748952806	1	0	0
98	0	129	95	0	20	0	120	0.673397948034108	1	0	0
99	0	32	92	1	20	0	122	0.507803356973454	0	0	0
100	0	97	84	0	22	0	122	0.667870751000009	0	0	0
101	1	3	78	0	24	0	122	3.64124754804652	1	0	0
102	0	68	129	1	21	0	120	0.638537254068069	1	0	0
103	1	103	2	1	19	0	122	0.577585260034539	1	0	0
104	1	95	80	0	16	0	120	0.701904860092327	0	0	0
105	1	140	149	0	24	0	122	0.590248985914513	1	0	0
106	1	57	15	0	22	0	120	0.980052378959954	0	0	0
107	1	60	96	1	29	0	122	0.488966166973114	1	0	0
108	1	27	93	1	27	0	122	0.665689092013054	1	0	0
109	1	32	39	0	25	0	122	1.14733736799099	1	0	0
110	1	57	67	1	23	0	122	0.618383836001158	1	0	0
111	1	73	78	0	21	0	122	0.821877052076161	1	0	0
112	1	83	97	1	19	0	122	0.626255936920643	1	0	0
113	0	38	21	1	17	0	122	2.46986415900756	0	0	0
114	1	72	68	1	23	0	122	0.678583636065014	1	0	0
115	0	147	109	0	21	0	120	0.656395229045302	1	0	0
116	0	149	129	1	19	0	120	2.20142298995052	1	0	0
117	0	138	107	0	17	0	120	0.855567093007267	1	0	0
118	0	40	70	1	15	0	120	0.696622674004175	1	0	0
119	0	17	125	0	13	0	122	0.553614388918504	0	0	0
120	1	129	25	0	19	0	120	1.06452695699409	0	0	0
121	1	52	145	1	24	0	122	0.553566714981571	1	0	0
122	0	90	127	0	23	0	120	1.04029012401588	1	0	0
123	1	141	23	1	21	0	120	0.650904769077897	0	0	0
124	0	109	143	0	26	0	120	0.701399594079703	1	0	0
125	1	73	12	1	24	0	122	0.933728816919029	1	0	0
126	1	70	112	0	23	0	122	0.627628729911521	1	0	0
127	1	33	66	0	21	0	122	0.752111922949553	1	0	0
128	1	81	1	1	19	0	122	0.861910277977586	1	0	0
129	0	44	27	0	18	0	122	1.53608501900453	0	0	0
130	0	144	46	0	23	0	120	0.687329796957783	1	0	0
131	1	129	1	1	21	0	122	0.569039375986904	1	0	0
132	0	150	53	1	20	0	120	0.621643117046915	1	0	0
133	1	94	67	1	18	0	120	0.889877338078804	0	0	0
134	1	20	132	0	22	0	120	0.690718921949156	0	0	0
135	0	138	66	1	27	0	120	0.867282144958153	1	0	0
136	0	49	30	0	26	0	120	0.820837589912117	1	0	0
137	0	111	131	0	24	0	120	0.838478788966313	1	0	0
138	1	98	16	0	23	0	122	0.632724946015514	1	0	0
139	0	49	103	0	21	0	122	1.17481689702254	0	0	0
140	0	47	80	1	26	0	120	0.536715456983075	1	0	0
141	1	1	105	1	24	0	120	0.65129446296487	0	0	0
142	0	115	83	1	28	0	122	0.933700394001789	0	0	0
143	0	150	33	0	32	0	120	0.556758004939184	1	0	0
144	1	37	61	1	31	0	120	0.971420577028766	0	0	0
145	1	60	17	1	35	0	122	0.512063737027347	1	0	0
146	0	7	5	0	34	0	120	0.896430891007185	1	0	0
147	0	144	53	1	32	0	120	0.817553368979134	1	0	0
148	0	31	111	0	31	0	120	0.748581515974365	1	0	0
149	0	51	16	1	30	0	120	0.59497965790797	1	0	0
150	0	37	111	0	29	0	120	1.38359689898789	1	0	0
151	0	100	27	0	27	0	120	0.940783292986453	1	0	0
152	1	6	118	1	26	0	122	0.596881942939945	1	0	0
153	1	141	88	0	25	0	122	0.824659751029685	1	0	0
154	0	107	64	1	24	0	122	0.685100702918135	0	0	0
155	0	10	34	1	27	0	120	0.677685906062834	1	0	0
156	1	144	51	1	26	0	122	0.615258454927243	1	0	0
157	0	136	125	1	25	0	120	1.65083582000807	1	0	0
158	1	128	5	0	24	0	122	0.749799395911396	1	0	0
159	0	130	119	0	23	0	122	0.587531810975634	0	0	0
160	1	56	12	1	26	0	122	1.51288783701602	1	0	0
161	0	22	66	1	25	0	120	0.576680612983182	1	0	0
162	0	108	44	1	24	0	122	1.01373559096828	0	0	0
163	0	11	8	0	27	0	120	0.626358517911285	1	0	0
164	0	9	15	1	26	0	122	1.11765086697415	0	0	0
165	1	94	83	0	29	0	120	0.57312705705408	0	0	0
166	0	65	117	1	32	0	120	0.850639899959788	1	0	0
167	0	110	61	1	31	0	122	0.772936124005355	0	0	0
168	0	148	73	1	34	0	120	0.547206555958837	1	0	0
169	0	97	148	1	33	0	120	0.625526434974745	1	0	0
170	0	143	138	0	32	0	120	0.684604324982502	1	0	0
171	0	66	62	1	31	0	120	0.724017580039799	1	0	0
172	1	15	1	1	30	0	120	0.524114246014506	0	0	0
173	0	27	66	0	33	0	120	0.763917891075835	1	0	0
174	1	37	27	1	32	0	122	0.777695529977791	1	0	0
175	1	120	43	1	31	0	120	0.941203480004333	0	0	0
176	0	137	115	1	34	0	120	0.830047806957737	1	0	0
177	1	129	94	1	33	0	122	0.57770284707658	1	0	0
178	0	145	66	0	32	0	120	0.519021255080588	1	0	0
179	0	150	95	0	31	0	120	1.10307335306425	1	0	0
180	0	6	117	1	30	0	122	0.838268422987312	0	0	0
181	1	1	62	1	33	0	122	1.08988850808237	1	0	0
182	1	108	110	1	32	0	122	0.730643244925886	1	0	0
183	1	136	10	0	31	0	122	0.570393871050328	1	0	0
184	1	57	59	0	30	0	122	0.599634194979444	1	0	0
185	1	79	68	1	30	0	122	0.652122648083605	1	0	0
186	1	94	40	1	29	0	120	0.558305562939495	0	0	0
187	0	49	45	0	31	0	120	0.916970578953624	1	0	0
188	1	40	108	0	30	0	122	0.580604310962372	1	0	0
189	1	137	58	0	30	0	122	0.546162943937816	1	0	0
190	0	76	62	0	29	0	120	0.494006120949052	1	0	0
191	0	111	144	0	28	0	122	1.02541604300495	0	0	0
192	0	26	132	0	30	0	122	0.772550855996087	0	0	0
193	0	86	136	0	33	0	120	0.53031549602747	1	0	0
194	1	85	15	1	32	0	122	0.553531284094788	1	0	0
195	1	125	127	0	31	0	122	0.527955700061284	1	0	0
196	1	138	60	0	30	0	122	0.583907756954432	1	0	0
197	0	84	112	1	30	0	120	1.16362996806856	1	0	0
198	0	13	136	0	29	0	120	1.05792411102448	1	0	0
199	0	66	60	0	28	0	120	0.74075029999949	1	0	0
200	1	26	11	0	27	0	122	0.643619930953719	1	0	0
201	1	118	64	0	27	0	120	1.00271231599618	0	0	0
202	1	144	50	1	35	0	122	0.568627675063908	1	0	0
203	1	69	28	0	32	0	122	0.686607831972651	1	0	0
204	0	126	108	0	30	0	120	0.503079783986323	1	0	0
205	1	100	61	0	28	0	122	0.647096395958215	1	0	0
206	0	92	20	1	26	0	120	0.600791609962471	1	0	0
207	1	103	148	0	23	0	122	0.686067162081599	1	0	0
208	1	106	39	0	21	0	122	0.590523847029544	1	0	0
209	1	18	141	0	19	0	122	0.884187745046802	1	0	0
210	1	91	144	1	17	0	120	1.00456559995655	0	0	0
211	1	100	149	1	23	0	122	0.807131145964377	1	0	0
212	0	59	20	0	21	0	120	0.62935144000221	1	0	0
213	0	29	20	0	19	0	120	0.721050570951775	1	0	0
214	0	100	89	1	17	0	120	0.969644274911843	1	0	0
215	0	126	67	1	15	0	120	0.799653305090033	1	0	0
216	1	60	116	0	13	0	122	0.570980252930894	1	0	0
217	0	17	119	0	11	0	120	1.50508310704026	1	0	0
218	0	138	73	0	9	0	120	1.28854624298401	1	0	0
219	0	74	136	1	7	0	120	1.19485703192186	1	0	0
220	0	25	109	0	5	0	120	2.42348535102792	1	0	0
221	0	86	14	1	3	0	122	2.15433443698566	0	0	0
222	0	121	97	0	9	0	122	2.13682010304183	0	0	0
223	1	59	121	1	15	0	122	1.00726287101861	1	0	0
224	0	145	58	0	13	0	122	1.61936043901369	0	0	0
225	0	126	12	0	18	0	120	0.687100726994686	1	0	0
226	0	63	129	1	17	0	122	0.66493758908473	0	0	0
227	1	67	69	1	22	0	122	0.601353787002154	1	0	0
228	0	63	35	0	20	0	122	0.886657824972644	0	0	0
229	1	147	148	0	25	0	122	0.81480610196013	1	0	0
230	1	36	30	1	23	0	122	0.571160687017255	1	0	0
231	0	127	59	0	22	0	122	1.34451483003795	0	0	0
232	1	107	144	0	27	0	122	0.831485406029969	1	0	0
233	1	68	97	0	25	0	122	0.586278350907378	1	0	0
234	0	101	28	0	23	0	120	0.727166468976066	1	0	0
235	1	135	72	0	22	0	122	0.615106567973271	1	0	0
236	1	143	101	0	21	0	120	0.626973431906663	0	0	0
237	1	27	16	0	25	0	122	0.533854965004139	1	0	0
238	0	131	3	1	24	0	120	0.723058357019909	1	0	0
239	1	150	19	0	22	0	122	0.541203459026292	1	0	0
240	1	62	4	1	21	0	122	0.716167629929259	1	0	0
241	0	3	3	1	19	0	120	0.644119034986943	1	0	0
242	0	32	90	0	18	0	120	0.847423236002214	1	0	0
243	0	70	92	0	17	0	120	0.906057378975675	1	0	0
244	0	135	111	1	15	0	122	0.601297091925517	0	0	0
245	0	124	135	0	19	0	120	0.749698123894632	1	0	0
246	0	51	55	0	18	0	120	0.635925985057838	1	0	0
247	0	38	55	0	17	0	122	0.703692378010601	0	0	0
248	1	77	120	0	20	0	122	2.27290000405628	1	0	0
249	0	97	24	0	19	0	122	2.25685274903663	0	0	0
250	1	147	75	0	23	0	120	0.539878546027467	0	0	0
251	0	7	93	1	27	0	120	0.664755680016242	1	0	0
252	0	46	137	1	25	0	120	0.644875316065736	1	0	0
253	0	116	62	0	24	0	122	0.647726897965185	0	0	0
254	1	83	64	1	28	0	122	0.666616450063884	1	0	0
255	0	85	141	0	27	0	120	0.626646553981118	1	0	0
256	1	85	33	0	26	0	120	0.822245714021847	0	0	0
257	0	78	39	0	29	0	120	0.530672841938213	1	0	0
258	1	118	15	1	28	0	122	1.06568272900768	1	0	0
259	1	116	116	0	27	0	120	0.634772198041901	0	0	0
260	1	76	129	0	30	0	120	0.774224575958215	0	0	0
261	1	106	109	0	34	0	122	0.659579745028168	1	0	0
262	1	7	6	1	33	0	122	0.717567169922404	1	0	0
263	0	53	141	1	32	0	122	0.588972727069631	0	0	0
264	1	48	142	0	35	0	120	0.618766154977493	0	0	0
265	1	96	72	0	38	0	122	0.621207810007036	1	0	0
266	0	3	58	1	37	0	120	0.80976546893362	1	0	0
267	0	132	63	0	36	0	120	1.21389136300422	1	0	0
268	0	96	12	1	35	0	120	0.746288536931388	1	0	0
269	0	75	90	1	34	0	120	1.16896286397241	1	0	0
270	1	25	72	1	33	0	122	1.51064223900903	1	0	0
271	0	19	14	0	32	0	120	0.655011821072549	1	0	0
272	1	135	48	1	31	0	122	0.61835117591545	1	0	0
273	1	134	106	1	30	0	122	0.652722412953153	1	0	0
274	0	121	144	1	29	0	120	0.560086596990004	1	0	0
275	1	43	17	0	28	0	122	0.581540497019887	1	0	0
276	1	95	126	0	27	0	122	0.744520767009817	1	0	0
277	0	32	6	1	26	0	120	0.617523815948516	1	0	0
278	1	126	121	0	25	0	122	0.917222996009514	1	0	0
279	1	23	132	1	24	0	120	0.933717265957966	0	0	0
280	0	46	113	0	27	0	120	0.676134038018063	1	0	0
281	1	62	38	0	26	0	122	0.637013162020594	1	0	0
282	0	36	82	0	25	0	122	1.13619097101036	0	0	0
283	1	10	135	1	28	0	122	0.63157933705952	1	0	0
284	0	48	116	1	27	0	120	0.922585819032975	1	0	0
285	0	104	91	0	26	0	120	0.905712157022208	1	0	0
286	1	22	1	1	25	0	122	1.28298088000156	1	0	0
287	1	139	34	0	24	0	122	1.50781496695708	1	0	0
288	1	120	143	1	23	0	120	0.72323005401995	0	0	0
289	0	11	84	1	26	0	120	0.652411524904892	1	0	0
290	0	93	88	0	25	0	120	0.598168767988682	1	0	0
291	1	145	113	1	24	0	122	0.53849743201863	1	0	0
292	1	95	63	0	23	0	122	0.689152010949329	1	0	0
293	1	62	121	0	22	0	122	0.80190338997636	1	0	0
294	0	56	45	0	22	0	122	0.839341736049391	0	0	0
295	0	12	76	0	24	0	120	0.689381669973955	1	0	0
296	0	143	65	1	23	0	122	0.755028852028772	0	0	0
297	1	121	23	1	26	0	122	0.568778689019382	1	0	0
298	0	15	118	1	25	0	120	0.62270708498545	1	0	0
299	0	96	84	0	24	0	120	0.850447406992316	1	0	0
300	1	22	1	0	23	0	122	0.588253194000572	1	0	0
