Trial	Gender_Face1	Face1_nb	Face2_nb	Right_left_flip	Nb_Bubbles	Overlap_Target	Response	RT	Accuracy	Simi2Target	Trial_Reward
1	1	79	26	0	62	0	122	4.6208203479182	1	0	0
2	0	110	79	0	59	0	122	5.29496872902382	0	0	0
3	1	7	18	0	67	0	122	0.846830010064878	1	0	0
4	1	106	92	0	65	0	122	1.83380553591996	1	0	0
5	0	79	119	1	63	0	122	4.8365380569594	0	0	0
6	1	84	85	1	70	0	122	0.679235777002759	1	0	0
7	1	18	60	0	68	0	122	0.729063539067283	1	0	0
8	0	76	42	1	66	0	120	0.721370838931762	1	0	0
9	1	147	146	0	63	0	122	0.673004347947426	1	0	0
10	0	142	8	0	61	0	120	0.626788699999452	1	0	0
11	1	84	61	0	59	0	122	0.822584619978443	1	0	0
12	0	87	45	0	57	0	122	0.555495552020147	0	0	0
13	1	141	22	1	63	0	122	0.537935236934572	1	0	0
14	0	131	132	0	61	0	120	0.649020608048886	1	0	0
15	1	116	80	1	59	0	120	0.692247535916977	0	0	0
16	1	117	81	0	65	0	120	0.932509601931088	0	0	0
17	0	105	89	0	71	0	120	6.38859150395729	1	0	0
18	1	89	30	1	69	0	120	0.714157116948627	0	0	0
19	1	132	134	1	75	0	122	0.674478859989904	1	0	0
20	1	114	81	0	73	0	122	0.620727300061844	1	0	0
21	0	56	140	1	71	0	122	0.632492540986277	0	0	0
22	0	143	53	1	76	0	120	0.867967737023719	1	0	0
23	1	100	109	0	75	0	122	0.573949547018856	1	0	0
24	1	47	33	1	73	0	122	0.788123489008285	1	0	0
25	0	23	119	0	72	0	122	0.841412342968397	0	0	0
26	0	21	85	1	77	0	120	0.755883591948077	1	0	0
27	1	62	117	1	75	0	120	0.722865291056223	0	0	0
28	0	142	39	0	79	0	120	0.610146070015617	1	0	0
29	1	80	29	1	78	0	120	0.614993801922537	0	0	0
30	1	150	37	1	83	0	120	0.531324728042819	0	0	0
31	0	8	108	1	87	0	120	0.54683682799805	1	0	0
32	1	24	89	1	86	0	120	0.706691246014088	0	0	0
33	0	62	109	1	90	0	120	0.474571524071507	1	0	0
34	1	122	5	0	88	0	122	0.508555353968404	1	0	0
35	0	29	68	1	87	0	120	0.548819880001247	1	0	0
36	0	138	60	1	86	0	122	0.507215750054456	0	0	0
37	1	137	110	1	90	0	122	0.613007925916463	1	0	0
38	1	43	45	0	88	0	122	0.570480505004525	1	0	0
39	0	108	70	0	87	0	120	0.605643055983819	1	0	0
40	0	33	32	0	86	0	120	0.539248285000212	1	0	0
41	1	9	55	1	85	0	120	0.690617220010608	0	0	0
42	0	107	133	0	88	0	120	0.531174261937849	1	0	0
43	0	25	19	0	87	0	120	0.3794719040161	1	0	0
44	0	98	23	0	86	0	120	0.520988447940908	1	0	0
45	1	123	130	0	85	0	120	0.432812050916255	0	0	0
46	1	117	59	0	88	0	120	0.748400000040419	0	0	0
47	1	44	94	0	92	0	120	0.520849571912549	0	0	0
48	1	38	80	0	96	0	120	0.842523840954527	0	0	0
49	1	108	35	0	99	0	120	0.574362040031701	0	0	0
50	0	87	100	1	103	0	120	0.740577580058016	1	0	0
51	0	28	14	1	101	0	120	0.603662007022649	1	0	0
52	0	104	118	0	100	0	120	0.600418968941085	1	0	0
53	0	116	63	1	99	0	120	0.596647820086218	1	0	0
54	1	69	87	0	98	0	122	0.754539654008113	1	0	0
55	1	65	94	1	97	0	122	0.543330996995792	1	0	0
56	1	116	92	0	96	0	122	0.535960516077466	1	0	0
57	1	45	49	0	95	0	122	0.550944147049449	1	0	0
58	1	115	118	1	94	0	122	0.614139356068335	1	0	0
59	1	20	84	1	93	0	122	0.586308455909602	1	0	0
60	0	150	146	0	92	0	120	0.65590744803194	1	0	0
61	0	20	31	0	91	0	120	0.810784255969338	1	0	0
62	1	41	39	0	90	0	120	0.543619617936201	0	0	0
63	0	119	130	0	93	0	120	0.606197829940356	1	0	0
64	0	68	106	0	92	0	120	0.57840631401632	1	0	0
65	1	40	94	0	91	0	120	0.583685697056353	0	0	0
66	0	106	80	1	94	0	120	0.365028845961206	1	0	0
67	0	20	75	1	93	0	120	0.427514014998451	1	0	0
68	1	148	109	1	92	0	120	0.295560068101622	0	0	0
69	1	93	132	0	95	0	120	0.296090872958302	0	0	0
70	1	130	57	0	98	0	120	0.510351957986131	0	0	0
71	0	42	41	0	100	0	120	0.495764788938686	1	0	0
72	1	118	29	0	99	0	120	0.37723189801909	0	0	0
73	1	40	95	1	102	0	122	0.566870242008008	1	0	0
74	0	18	83	0	101	0	120	0.365225096000358	1	0	0
75	0	47	22	1	100	0	120	0.539555432042107	1	0	0
76	0	148	131	0	99	0	120	0.467255694093183	1	0	0
77	1	136	33	0	98	0	122	0.532703181961551	1	0	0
78	0	101	67	0	98	0	120	0.653048309031874	1	0	0
79	0	33	132	0	97	0	120	0.447518706088886	1	0	0
80	1	13	54	1	96	0	122	0.61061168089509	1	0	0
81	0	64	1	0	95	0	120	0.735489523038268	1	0	0
82	1	50	88	1	94	0	122	0.686637121019885	1	0	0
83	1	46	66	1	93	0	122	0.656104746973142	1	0	0
84	1	72	146	1	92	0	120	0.730719498009421	0	0	0
85	1	102	71	0	95	0	122	0.809816956985742	1	0	0
86	0	150	35	1	94	0	120	0.606468066922389	1	0	0
87	0	96	64	1	93	0	120	0.539845235063694	1	0	0
88	0	71	90	1	92	0	120	0.818872422096319	1	0	0
89	1	59	131	0	92	0	122	0.64646261499729	1	0	0
90	0	9	143	0	91	0	120	0.530182696064003	1	0	0
91	0	92	91	0	90	0	120	0.521225617034361	1	0	0
92	0	77	50	0	89	0	120	0.401291972026229	1	0	0
93	1	114	56	0	88	0	120	0.429809949942864	0	0	0
94	0	11	68	1	91	0	120	0.650424482068047	1	0	0
95	1	82	94	0	90	0	122	0.413038723985665	1	0	0
96	1	135	132	0	89	0	122	0.577144661918283	1	0	0
97	0	22	137	1	89	0	122	0.567285010009073	0	0	0
98	1	114	112	0	91	0	120	0.445462979958393	0	0	0
99	0	80	32	1	93	0	120	0.664741042070091	1	0	0
100	1	1	90	0	92	0	122	1.08315327798482	1	0	0
101	0	147	53	0	92	0	120	1.23367619002238	1	0	0
102	1	7	32	1	89	0	122	0.619010568945669	1	0	0
103	1	114	143	0	87	0	120	1.13483637501486	0	0	0
104	0	59	4	1	95	0	120	0.581750868004747	1	0	0
105	1	127	133	0	92	0	122	2.43593882198911	1	0	0
106	1	41	115	0	90	0	120	0.559495773981325	0	0	0
107	1	127	37	1	97	0	120	1.17306134896353	0	0	0
108	0	129	85	1	104	0	120	0.578961274004541	1	0	0
109	0	1	67	0	102	0	120	0.432096684002317	1	0	0
110	1	59	118	1	100	0	120	0.499994096928276	0	0	0
111	0	130	107	1	106	0	120	0.669705300941132	1	0	0
112	1	99	136	1	104	0	120	0.735481463954784	0	0	0
113	0	146	94	0	109	0	120	0.934779123053886	1	0	0
114	0	93	84	1	108	0	120	0.766078351065516	1	0	0
115	1	135	76	0	106	0	122	0.676193031016737	1	0	0
116	1	114	18	1	104	0	122	0.550054242019542	1	0	0
117	1	92	32	1	102	0	122	0.999964994029142	1	0	0
118	1	32	36	0	101	0	120	0.626192635972984	0	0	0
119	1	29	136	0	106	0	120	0.518204475054517	0	0	0
120	1	93	90	0	111	0	122	0.669257111963816	1	0	0
121	1	125	133	1	109	0	120	0.584604882984422	0	0	0
122	0	78	55	0	114	0	120	0.574031599098817	1	0	0
123	1	31	120	0	112	0	122	1.15584912907798	1	0	0
124	0	115	143	0	111	0	120	0.586955414968543	1	0	0
125	1	45	44	1	109	0	120	2.62363383301999	0	0	0
126	0	38	39	0	114	0	120	0.844146813033149	1	0	0
127	0	19	105	0	112	0	120	0.614609607961029	1	0	0
128	0	83	76	1	111	0	120	0.508092392003164	1	0	0
129	1	88	111	0	109	0	120	0.595743049052544	0	0	0
130	1	21	60	0	114	0	120	0.576124703045934	0	0	0
131	0	111	148	0	118	0	120	0.685587594052777	1	0	0
132	1	17	40	1	117	0	122	1.09512499195989	1	0	0
133	1	54	145	0	115	0	122	0.63036446494516	1	0	0
134	0	42	32	1	114	0	120	0.596706166979857	1	0	0
135	0	134	79	1	113	0	120	0.713845725054853	1	0	0
136	1	118	61	1	111	0	122	1.17774073698092	1	0	0
137	0	9	114	1	110	0	122	0.798996989033185	0	0	0
138	1	66	107	1	114	0	120	0.476210511988029	0	0	0
139	0	39	78	1	118	0	122	1.04585904197302	0	0	0
140	0	34	80	1	121	0	120	0.889443918014877	1	0	0
141	0	6	54	0	120	0	120	0.842038913979195	1	0	0
142	1	46	91	1	119	0	120	12.5894722039811	0	0	0
143	1	34	131	0	123	0	122	19.0914977750508	1	0	0
144	0	54	25	0	122	0	120	0.836937618907541	1	0	0
145	0	35	148	1	120	0	120	0.792502074036747	1	0	0
146	0	36	42	1	119	0	120	0.364880354027264	1	0	0
147	1	131	13	1	118	0	122	0.467813478899188	1	0	0
148	0	115	114	0	117	0	120	0.405249012052082	1	0	0
149	0	23	118	1	116	0	120	0.450153194949962	1	0	0
150	0	11	134	0	115	0	120	0.292571401922032	1	0	0
151	0	125	9	0	114	0	120	0.245757812052034	1	0	0
152	0	146	62	1	112	0	120	0.497948080999777	1	0	0
153	0	139	127	0	111	0	120	0.66584344196599	1	0	0
154	1	41	130	1	110	0	120	0.548479652963579	0	0	0
155	0	32	5	1	113	0	120	0.642919937032275	1	0	0
156	0	84	24	1	112	0	120	0.462826241971925	1	0	0
157	1	97	23	1	111	0	122	2.14394594205078	1	0	0
158	1	68	146	0	110	0	122	1.01518588198815	1	0	0
159	1	123	97	1	109	0	122	1.33176075399388	1	0	0
160	0	146	128	0	108	0	120	0.73118467698805	1	0	0
161	0	125	54	1	107	0	120	0.667408852954395	1	0	0
162	1	65	79	0	106	0	120	0.739214992965572	0	0	0
163	0	9	84	0	109	0	120	0.562234743032604	1	0	0
164	1	95	96	1	108	0	120	0.490583360078745	0	0	0
165	0	45	60	1	111	0	120	0.452438637963496	1	0	0
166	0	14	20	1	110	0	120	0.358668202999979	1	0	0
167	0	12	7	0	109	0	120	0.436585133080371	1	0	0
168	1	106	105	1	108	0	120	0.656517020077445	0	0	0
169	1	55	138	1	111	0	120	0.626271276036277	0	0	0
170	0	15	82	1	114	0	120	0.502702674944885	1	0	0
171	1	75	127	1	113	0	120	0.647590480977669	0	0	0
172	0	46	23	0	116	0	120	0.577710345969535	1	0	0
173	1	109	129	0	115	0	122	0.871265282970853	1	0	0
174	1	112	127	1	114	0	120	0.75358094193507	0	0	0
175	1	33	105	1	117	0	122	0.608290654025041	1	0	0
176	0	123	4	0	116	0	120	0.500927228014916	1	0	0
177	0	56	132	0	115	0	122	0.612877611070871	0	0	0
178	0	43	21	1	118	0	120	0.512965028989129	1	0	0
179	1	26	137	0	117	0	122	0.585608533001505	1	0	0
180	1	129	127	1	116	0	120	0.487889790907502	0	0	0
181	0	16	96	0	118	0	120	0.704906826955266	1	0	0
182	0	133	129	0	117	0	120	0.553645150968805	1	0	0
183	0	115	75	1	117	0	120	0.664245323976502	1	0	0
184	0	60	96	0	116	0	120	0.63371688791085	1	0	0
185	1	70	35	0	115	0	120	0.870909175020643	0	0	0
186	1	97	148	0	117	0	122	0.54448564699851	1	0	0
187	0	140	134	1	117	0	120	0.551015631994233	1	0	0
188	0	78	124	0	116	0	120	0.566154032945633	1	0	0
189	1	122	83	1	115	0	120	0.595194400055334	0	0	0
190	1	57	90	0	117	0	122	0.721625839942135	1	0	0
191	0	75	4	1	117	0	120	0.578092518961057	1	0	0
192	0	70	74	0	116	0	122	0.703312022029422	0	0	0
193	1	2	69	0	118	0	120	0.351600844995119	0	0	0
194	0	87	87	0	121	0	122	0.582471135887317	0	0	0
195	0	13	79	0	123	0	120	0.564043798949569	1	0	0
196	1	85	68	1	122	0	122	0.570777407032438	1	0	0
197	0	32	42	0	121	0	122	0.877993852016516	0	0	0
198	0	31	41	0	124	0	120	0.767145983991213	1	0	0
199	0	33	136	1	123	0	120	0.613207136979327	1	0	0
200	1	37	79	1	122	0	122	0.736992675927468	1	0	0
201	0	124	110	1	121	0	120	1.52960945200175	1	0	0
202	0	73	142	0	118	0	122	0.606269390904345	0	0	0
203	0	98	80	0	126	0	122	0.730697582941502	0	0	0
204	1	98	44	0	134	0	122	0.873598873033188	1	0	0
205	1	7	13	1	131	0	122	0.635491183958948	1	0	0
206	1	111	72	1	129	0	120	0.607231464004144	0	0	0
207	1	120	27	1	136	0	120	0.811447703046724	0	0	0
208	1	61	100	0	142	0	122	0.719638413982466	1	0	0
209	1	101	142	1	140	0	122	0.687565961969085	1	0	0
210	1	57	143	0	138	0	122	1.04885670403019	1	0	0
211	0	74	10	1	136	0	120	3.65231019095518	1	0	0
212	1	75	138	0	134	0	122	0.831003227969632	1	0	0
213	0	42	135	1	133	0	120	0.795085364021361	1	0	0
214	0	23	44	0	131	0	120	0.599336847080849	1	0	0
215	0	36	137	1	129	0	120	3.61266247194726	1	0	0
216	1	48	50	1	127	0	122	1.60114238597453	1	0	0
217	0	63	64	1	125	0	120	0.693672213936225	1	0	0
218	1	35	135	0	124	0	120	0.534533058991656	0	0	0
219	1	52	109	1	129	0	120	0.574088338995352	0	0	0
220	1	43	76	0	134	0	122	0.603257043054327	1	0	0
221	0	21	36	1	132	0	120	0.61578436405398	1	0	0
222	1	78	112	1	130	0	122	0.500275635975413	1	0	0
223	0	125	147	0	129	0	120	0.909048470086418	1	0	0
224	1	76	76	1	127	0	122	0.998372294008732	1	0	0
225	0	94	3	1	126	0	120	0.681812751921825	1	0	0
226	0	73	144	1	124	0	120	1.06117248896044	1	0	0
227	0	114	141	1	123	0	122	1.36741213896312	0	0	0
228	1	94	137	1	127	0	122	0.63778041000478	1	0	0
229	0	29	95	1	126	0	120	0.560999750974588	1	0	0
230	1	75	85	0	124	0	120	1.00127887201961	0	0	0
231	0	122	32	1	129	0	120	0.828086027991958	1	0	0
232	1	65	139	0	127	0	122	0.655541943968274	1	0	0
233	1	74	128	1	126	0	120	0.699372292961925	0	0	0
234	1	11	71	0	130	0	122	0.611463751993142	1	0	0
235	0	20	16	0	129	0	120	0.511953507899307	1	0	0
236	0	2	5	0	127	0	120	2.88888756197412	1	0	0
237	1	91	21	1	126	0	122	0.770198673009872	1	0	0
238	0	2	59	0	125	0	120	0.415146701037884	1	0	0
239	1	40	11	1	123	0	122	0.500338861951604	1	0	0
240	1	54	136	1	122	0	122	0.509223585948348	1	0	0
241	0	150	12	1	121	0	120	0.461762595921755	1	0	0
242	1	23	36	0	120	0	122	0.599774964037351	1	0	0
243	0	72	128	1	118	0	120	0.419865117059089	1	0	0
244	0	100	71	0	117	0	122	0.360874727019109	0	0	0
245	1	4	79	0	121	0	120	0.43055651593022	0	0	0
246	0	82	140	1	124	0	120	0.51483531401027	1	0	0
247	1	142	28	0	123	0	120	0.739343145978637	0	0	0
248	1	96	79	0	127	0	122	0.537580708041787	1	0	0
249	1	112	95	1	125	0	120	0.465582979959436	0	0	0
250	0	70	123	1	129	0	120	0.611670117010362	1	0	0
251	1	138	64	1	128	0	122	0.496200473979115	1	0	0
252	0	47	126	0	127	0	120	0.473519928054884	1	0	0
253	0	82	136	1	126	0	120	0.443777050939389	1	0	0
254	0	110	63	0	125	0	120	0.732996969018131	1	0	0
255	0	130	140	0	123	0	120	0.478333043982275	1	0	0
256	1	105	76	1	122	0	122	0.623729628976434	1	0	0
257	0	105	98	0	121	0	120	0.555480747949332	1	0	0
258	1	31	134	1	120	0	122	0.538388730026782	1	0	0
259	0	150	47	1	119	0	120	0.441134741995484	1	0	0
260	0	136	19	0	118	0	120	0.523919117054902	1	0	0
261	0	125	7	1	117	0	120	0.483269419055432	1	0	0
262	1	27	111	0	116	0	122	0.429620753973722	1	0	0
263	0	122	57	1	115	0	120	0.417079335078597	1	0	0
264	1	131	146	0	114	0	122	0.365799716906622	1	0	0
265	0	107	9	1	113	0	120	0.459666605922394	1	0	0
266	1	49	55	1	112	0	122	0.55070967390202	1	0	0
267	1	43	1	1	111	0	122	0.532863665022887	1	0	0
268	1	143	107	0	111	0	122	0.811413015937433	1	0	0
269	1	69	137	1	110	0	122	0.784694973030128	1	0	0
270	1	78	122	0	109	0	122	0.574070061906241	1	0	0
271	0	104	103	0	108	0	120	0.956812210031785	1	0	0
272	0	133	27	0	107	0	120	0.499290233012289	1	0	0
273	0	126	25	0	106	0	120	0.507552398950793	1	0	0
274	1	44	144	0	105	0	120	0.524360434967093	0	0	0
275	0	145	75	0	108	0	120	0.50779931305442	1	0	0
276	1	97	28	1	107	0	120	0.524393248022534	0	0	0
277	1	22	37	1	110	0	120	1.05287145206239	0	0	0
278	1	97	12	0	112	0	122	0.575130651937798	1	0	0
279	0	37	24	1	111	0	120	0.484867368941195	1	0	0
280	1	33	59	1	110	0	120	0.589729971019551	0	0	0
281	1	120	57	0	113	0	120	0.491082709049806	0	0	0
282	0	9	92	1	115	0	120	0.476873322040774	1	0	0
283	0	3	4	0	115	0	120	0.469871011911891	1	0	0
284	0	77	32	1	114	0	120	0.632574502960779	1	0	0
285	0	125	99	0	113	0	120	1.52365571400151	1	0	0
286	0	126	13	0	112	0	120	0.755352818989195	1	0	0
287	0	61	53	1	111	0	120	0.890128429979086	1	0	0
288	1	4	20	0	111	0	120	1.41978435707279	0	0	0
289	0	89	67	1	113	0	120	0.887590850936249	1	0	0
290	1	144	86	0	112	0	120	1.27253596694209	0	0	0
291	1	87	70	0	114	0	120	0.979474083986133	0	0	0
292	1	134	60	1	117	0	122	0.649236845085397	1	0	0
293	1	118	101	1	116	0	122	0.636896529002115	1	0	0
294	0	134	146	0	115	0	120	0.575920046074316	1	0	0
295	0	54	25	0	114	0	120	0.749022585921921	1	0	0
296	1	38	58	0	114	0	122	0.652892849990167	1	0	0
297	1	123	145	1	113	0	122	0.711007624049671	1	0	0
298	0	84	31	0	112	0	120	0.383791306987405	1	0	0
299	1	112	18	1	111	0	122	0.772832393995486	1	0	0
300	1	28	148	0	111	0	122	0.546136029995978	1	0	0
301	0	141	127	1	110	0	120	1.11887138290331	1	0	0
302	1	9	99	1	107	0	120	0.926272402983159	0	0	0
303	1	127	95	1	115	0	120	0.691986569087021	0	0	0
304	0	149	104	0	123	0	120	0.997235622955486	1	0	0
305	0	113	125	1	120	0	120	0.866536405053921	1	0	0
306	1	100	59	1	118	0	122	0.997544559999369	1	0	0
307	1	79	88	0	116	0	122	0.793318849988282	1	0	0
308	1	49	90	0	114	0	120	0.935104425996542	0	0	0
309	0	50	142	0	121	0	120	0.838629564968869	1	0	0
310	0	142	2	0	119	0	120	0.713923390954733	1	0	0
311	1	73	76	1	117	0	122	0.649708476033993	1	0	0
312	1	96	103	1	115	0	122	0.684967337059788	1	0	0
313	0	34	18	0	113	0	120	0.606953637907282	1	0	0
314	1	37	96	0	111	0	122	0.547343879006803	1	0	0
315	0	3	92	1	109	0	120	0.530080921016634	1	0	0
316	1	76	147	0	107	0	122	0.609928564052097	1	0	0
317	1	150	132	0	105	0	122	1.27855377399828	1	0	0
318	0	33	2	0	103	0	120	0.671658894047141	1	0	0
319	1	109	56	0	102	0	122	0.577699869987555	1	0	0
320	1	105	65	0	100	0	122	0.711472333059646	1	0	0
321	1	31	59	0	98	0	122	0.741700613987632	1	0	0
322	0	114	53	1	96	0	122	1.69451911491342	0	0	0
323	0	121	140	1	102	0	120	2.06472908298019	1	0	0
324	0	62	134	0	100	0	120	2.94650116399862	1	0	0
325	0	15	116	1	98	0	120	1.02547481993679	1	0	0
326	1	26	62	0	97	0	120	0.740813881973736	0	0	0
327	0	103	30	0	102	0	120	0.540080095990561	1	0	0
328	0	27	39	1	100	0	120	0.707108046975918	1	0	0
329	1	131	125	1	99	0	122	2.82601184910163	1	0	0
330	0	143	3	0	97	0	120	0.70188645995222	1	0	0
331	1	19	52	0	96	0	122	0.750415964052081	1	0	0
332	1	85	45	1	94	0	122	0.622222358942963	1	0	0
333	1	136	7	1	93	0	122	0.561851873062551	1	0	0
334	1	133	95	0	91	0	122	0.655719158006832	1	0	0
335	1	109	43	1	90	0	122	1.17071822693106	1	0	0
336	1	17	86	1	88	0	122	1.63272211700678	1	0	0
337	0	108	142	0	87	0	122	0.719468045048416	0	0	0
338	0	84	49	1	91	0	120	0.741375973098911	1	0	0
339	0	128	143	0	90	0	120	0.572635721997358	1	0	0
340	1	6	33	0	88	0	122	0.681471869931556	1	0	0
341	0	56	39	0	87	0	120	0.876221421989612	1	0	0
342	0	135	59	1	86	0	120	1.0455793159781	1	0	0
343	0	10	148	0	84	0	120	0.545577457989566	1	0	0
344	1	10	106	0	83	0	122	0.76789377105888	1	0	0
345	1	56	4	1	82	0	120	0.637693654978648	0	0	0
346	1	30	51	1	86	0	120	0.672202221001498	0	0	0
347	0	101	13	0	89	0	120	0.515377850970253	1	0	0
348	0	82	74	1	88	0	120	0.596452450030483	1	0	0
349	1	93	13	1	87	0	120	0.905200643930584	0	0	0
350	1	143	132	1	91	0	122	9.48138802801259	1	0	0
351	0	55	3	0	89	0	122	1.37082992796786	0	0	0
352	0	134	96	0	93	0	120	1.83334985200781	1	0	0
353	0	20	140	0	92	0	122	1.64499696891289	0	0	0
354	1	101	26	0	95	0	120	1.00773069006391	0	0	0
355	1	124	44	0	99	0	122	0.795750829041936	1	0	0
356	1	38	129	1	97	0	122	0.825251040048897	1	0	0
357	0	80	128	0	96	0	120	0.981012776028365	1	0	0
358	1	12	89	1	95	0	122	0.626790650072508	1	0	0
359	0	5	122	1	94	0	120	0.886947558028623	1	0	0
360	0	75	49	1	93	0	120	0.688143920036964	1	0	0
361	0	19	55	0	92	0	120	0.613778111059219	1	0	0
362	1	72	27	0	91	0	122	0.949461365002207	1	0	0
363	0	46	11	0	90	0	120	0.9004933279939	1	0	0
364	0	74	4	0	89	0	120	0.733249292941764	1	0	0
365	0	55	68	0	88	0	122	1.43798754294403	0	0	0
366	1	98	72	1	91	0	122	0.60107487894129	1	0	0
367	1	145	16	0	90	0	122	0.549902213038877	1	0	0
368	1	103	74	0	89	0	122	0.636743593029678	1	0	0
369	0	36	96	1	88	0	120	0.679672190919518	1	0	0
370	1	123	49	1	87	0	120	1.0652538879076	0	0	0
371	0	140	116	0	90	0	120	0.836326353019103	1	0	0
372	1	127	67	1	89	0	120	0.876909262966365	0	0	0
373	0	108	99	0	91	0	120	0.761616154923104	1	0	0
374	1	89	19	1	91	0	120	0.511772826081142	0	0	0
375	0	58	126	1	93	0	120	0.543380702030845	1	0	0
376	1	40	101	0	92	0	122	1.37528113194276	1	0	0
377	0	48	129	1	92	0	120	0.565074156969786	1	0	0
378	1	148	66	1	91	0	120	0.875485777971335	0	0	0
379	1	98	132	1	93	0	122	0.516562932054512	1	0	0
380	0	150	56	0	93	0	120	1.7740518230712	1	0	0
381	0	56	73	1	92	0	122	3.6424573760014	0	0	0
382	0	12	23	0	94	0	120	0.622020222013816	1	0	0
383	1	86	29	0	93	0	120	1.04139706701972	0	0	0
384	1	26	49	0	96	0	120	1.23661900998559	0	0	0
385	0	127	96	1	99	0	120	0.84019212401472	1	0	0
386	1	55	68	0	98	0	122	0.546792879002169	1	0	0
387	1	16	72	0	97	0	122	1.07389829494059	1	0	0
388	1	54	117	1	96	0	122	0.971339242998511	1	0	0
389	1	16	107	0	95	0	120	1.45792752597481	0	0	0
390	0	29	66	0	98	0	120	0.667858123080805	1	0	0
391	0	40	77	1	97	0	120	0.990373203065246	1	0	0
392	0	56	92	1	96	0	120	1.27572218806017	1	0	0
393	1	52	4	1	95	0	120	1.20527699298691	0	0	0
394	0	51	7	1	98	0	120	1.00248856109101	1	0	0
395	1	80	132	0	97	0	122	3.5182262751041	1	0	0
396	1	134	141	1	96	0	122	0.68715907796286	1	0	0
397	0	124	136	0	95	0	122	2.61592780100182	0	0	0
398	0	93	76	0	98	0	120	3.1166687029181	1	0	0
399	1	25	86	0	97	0	120	2.78878492896911	0	0	0
400	0	69	80	1	99	0	120	2.57787602196913	1	0	0
401	0	142	138	0	98	0	120	1.5341337689897	1	0	0
402	0	105	85	0	95	0	120	1.12317651393823	1	0	0
403	0	48	121	1	91	0	120	32.2430655870121	1	0	0
404	0	94	148	1	88	0	120	0.589134727022611	1	0	0
405	1	20	74	0	85	0	122	0.450291860033758	1	0	0
406	0	45	7	1	81	0	120	0.613280724966899	1	0	0
407	1	80	8	1	78	0	122	0.753489342983812	1	0	0
408	1	141	103	1	75	0	122	0.815926122013479	1	0	0
409	1	128	80	1	72	0	122	0.643976147985086	1	0	0
410	1	92	118	0	68	0	122	0.630802362924442	1	0	0
411	0	30	74	0	65	0	120	0.602318244986236	1	0	0
412	0	115	144	1	62	0	120	0.639276756090112	1	0	0
413	1	109	147	1	59	0	120	0.731385042075999	0	0	0
414	1	1	73	0	68	0	120	0.617990177939646	0	0	0
415	0	130	25	0	77	0	120	0.726626508985646	1	0	0
416	0	132	112	0	75	0	120	0.638493392034434	1	0	0
417	1	63	145	1	72	0	120	0.777562245959416	0	0	0
418	1	93	145	1	81	0	122	0.574626822024584	1	0	0
419	1	125	139	0	78	0	120	1.72437410394195	0	0	0
420	1	93	102	1	86	0	122	0.523866177070886	1	0	0
421	0	109	59	0	83	0	120	0.540558654931374	1	0	0
422	1	105	129	0	81	0	120	1.0582371680066	0	0	0
423	1	6	27	1	88	0	122	0.621427561040036	1	0	0
424	0	107	16	1	86	0	120	1.13849823595956	1	0	0
425	1	105	38	0	84	0	122	0.625320674036629	1	0	0
426	1	115	126	0	81	0	122	0.589407411986031	1	0	0
427	1	47	84	0	79	0	122	0.59449093893636	1	0	0
428	0	47	12	0	77	0	120	0.684226925950497	1	0	0
429	1	136	32	1	74	0	120	0.896310445968993	0	0	0
430	1	35	35	0	81	0	120	0.696609809063375	0	0	0
431	0	10	117	0	88	0	120	0.674270234070718	1	0	0
432	1	110	78	1	86	0	120	0.571287255967036	0	0	0
433	1	122	69	1	92	0	122	0.649078672984615	1	0	0
434	1	12	61	0	90	0	122	0.58817965106573	1	0	0
435	1	35	75	0	88	0	120	0.705867662909441	0	0	0
436	0	9	79	0	94	0	122	1.2506519620074	0	0	0
437	0	13	111	1	100	0	120	1.97332018893212	1	0	0
438	1	101	54	1	98	0	120	1.64475417893846	0	0	0
439	0	129	138	0	104	0	120	0.925967499963008	1	0	0
440	0	123	68	0	102	0	120	2.00503672799096	1	0	0
441	0	106	87	0	100	0	120	1.91926551703364	1	0	0
442	0	126	141	1	98	0	120	0.545849949936382	1	0	0
443	0	28	5	0	96	0	120	0.58584667602554	1	0	0
444	1	73	143	1	94	0	120	1.48644818901084	0	0	0
445	1	10	76	1	100	0	120	0.704332077992149	0	0	0
446	1	63	87	1	105	0	120	0.992796067032032	0	0	0
447	0	66	67	0	111	0	120	0.637847680947743	1	0	0
448	0	31	28	1	109	0	120	0.688918384956196	1	0	0
449	0	63	22	1	107	0	122	0.647616445901804	0	0	0
450	0	75	27	1	112	0	120	1.07644556206651	1	0	0
451	0	4	131	1	111	0	120	0.7272987869801	1	0	0
452	1	142	145	0	109	0	122	1.25412409601267	1	0	0
453	0	101	26	0	107	0	120	0.64957415801473	1	0	0
454	1	18	31	1	106	0	122	0.525234268046916	1	0	0
455	0	142	124	0	104	0	120	0.867358166025952	1	0	0
456	0	128	69	0	102	0	120	0.646525103016756	1	0	0
457	0	83	57	1	101	0	120	0.746539602987468	1	0	0
458	0	32	4	0	99	0	120	0.888644921011291	1	0	0
459	0	146	117	0	98	0	120	0.802002036012709	1	0	0
460	0	98	79	1	96	0	120	0.870920959045179	1	0	0
461	1	33	144	1	95	0	120	3.55216845998075	0	0	0
462	0	50	149	1	99	0	120	0.686823801952414	1	0	0
463	0	130	24	0	98	0	120	1.35195938393008	1	0	0
464	1	147	22	0	97	0	120	2.66313927900046	0	0	0
465	0	43	132	0	101	0	120	0.641088939039037	1	0	0
466	0	59	43	0	99	0	120	0.660031768027693	1	0	0
467	0	8	137	1	98	0	120	1.7588179060258	1	0	0
468	0	133	94	1	97	0	120	0.54124355292879	1	0	0
469	1	50	118	1	95	0	122	2.57244468305726	1	0	0
470	0	101	120	0	94	0	120	1.21075266599655	1	0	0
471	0	137	46	1	93	0	120	0.526582124992274	1	0	0
472	0	65	30	1	91	0	120	0.630395714077167	1	0	0
473	1	86	135	0	90	0	120	0.777989667956717	0	0	0
474	0	119	74	1	94	0	120	0.672033750917763	1	0	0
475	0	118	6	1	93	0	120	0.618399815051816	1	0	0
476	0	134	118	0	91	0	120	0.702620400930755	1	0	0
477	0	85	81	1	90	0	120	0.582625000039116	1	0	0
478	1	58	143	1	89	0	122	2.14044014702085	1	0	0
479	0	16	124	1	88	0	120	0.666885307990015	1	0	0
480	0	144	73	0	87	0	120	0.726127703092061	1	0	0
481	0	60	40	0	85	0	120	0.477101807016879	1	0	0
482	1	24	5	0	84	0	122	0.622684572008438	1	0	0
483	0	124	110	0	83	0	120	0.61788983293809	1	0	0
484	0	134	113	0	82	0	120	0.766928261960857	1	0	0
485	0	147	108	1	81	0	120	0.581014303024858	1	0	0
486	0	5	111	1	80	0	120	0.523334829020314	1	0	0
487	1	64	63	1	79	0	122	0.722458714037202	1	0	0
488	1	49	29	0	78	0	122	0.539273669011891	1	0	0
489	1	107	82	1	77	0	122	0.482219693949446	1	0	0
490	1	57	41	0	76	0	122	0.676131799933501	1	0	0
491	1	68	134	1	75	0	122	1.14982910803519	1	0	0
492	1	103	79	1	74	0	122	0.493018273962662	1	0	0
493	0	144	91	1	73	0	120	0.733699255972169	1	0	0
494	1	37	53	1	72	0	122	0.500383470091037	1	0	0
495	1	3	47	1	71	0	122	0.989532106905244	1	0	0
496	0	15	67	0	70	0	120	1.52290535997599	1	0	0
497	0	128	144	0	69	0	120	0.682895831996575	1	0	0
498	1	60	74	1	68	0	122	0.619187040952966	1	0	0
499	0	139	3	1	67	0	120	0.767335864948109	1	0	0
500	0	80	50	0	66	0	120	4.18991963204462	1	0	0
