Trial	Gender_Face1	Face1_nb	Face2_nb	Right_left_flip	Nb_Bubbles	Overlap_Target	Response	RT	Accuracy	Simi2Target	Trial_Reward
1	0	100	87	1	58	0	122	0.870563418007805	1	0	0
2	1	27	82	1	55	0	120	0.700178199011134	1	0	0
3	0	76	5	1	53	0	122	0.93746503899456	1	0	0
4	1	68	4	1	50	0	120	0.570192943996517	1	0	0
5	0	94	98	0	47	0	122	1.75204761901114	1	0	0
6	1	5	69	0	45	0	122	1.71896968099463	0	0	0
7	0	8	53	1	53	0	122	0.670656925998628	1	0	0
8	0	107	135	0	50	0	122	0.704911045002518	1	0	0
9	1	36	123	0	48	0	120	0.67360905399255	1	0	0
10	0	32	77	0	46	0	120	0.811533407002571	0	0	0
11	0	137	121	1	53	0	122	0.615739045009832	1	0	0
12	0	7	75	1	51	0	122	0.700213389995042	1	0	0
13	0	81	10	1	48	0	122	0.701132475995109	1	0	0
14	1	132	59	0	46	0	122	0.677497908996884	0	0	0
15	0	97	59	0	53	0	122	0.679331527004251	1	0	0
16	1	21	115	1	51	0	120	0.880507338995812	1	0	0
17	1	18	128	1	49	0	120	0.882395111999358	1	0	0
18	1	41	122	0	47	0	122	0.99647192399425	0	0	0
19	1	76	136	0	53	0	122	0.624890075006988	0	0	0
20	0	19	47	1	59	0	122	0.517800225992687	1	0	0
21	1	70	87	1	57	0	120	0.685444756003562	1	0	0
22	0	80	62	0	55	0	120	0.935259354999289	0	0	0
23	1	42	70	1	60	0	120	1.08607464999659	1	0	0
24	0	138	12	1	59	0	122	0.59969231300056	1	0	0
25	1	13	97	1	57	0	120	1.16399036700022	1	0	0
26	1	101	50	0	55	0	122	0.666604054000345	0	0	0
27	0	6	54	1	60	0	122	0.636163347997353	1	0	0
28	1	59	115	0	59	0	120	0.751977580002858	1	0	0
29	1	100	68	1	57	0	122	0.870902715992997	0	0	0
30	0	114	99	1	62	0	122	0.521914971002843	1	0	0
31	1	36	91	1	61	0	122	0.921041510009672	0	0	0
32	1	125	115	0	65	0	122	0.727233112993417	0	0	0
33	1	64	45	0	70	0	120	0.663905834997422	1	0	0
34	0	121	12	1	68	0	122	0.803079609002452	1	0	0
35	1	113	141	1	67	0	120	0.702806198009057	1	0	0
36	0	97	56	0	65	0	122	0.60728862999531	1	0	0
37	1	143	30	1	64	0	120	0.995189127002959	1	0	0
38	1	4	125	0	62	0	120	0.753244096005801	1	0	0
39	0	1	87	1	61	0	122	0.616480534008588	1	0	0
40	0	138	120	1	60	0	122	0.70809294799983	1	0	0
41	0	88	84	0	58	0	122	0.6050920389971	1	0	0
42	0	84	46	0	57	0	122	0.561089523005649	1	0	0
43	0	94	59	1	55	0	122	0.679391587997088	1	0	0
44	0	46	136	1	54	0	122	0.497351796002476	1	0	0
45	1	9	84	1	53	0	120	0.986580479991972	1	0	0
46	1	74	28	0	51	0	122	1.02394484300748	0	0	0
47	0	63	75	0	55	0	122	0.683519856000203	1	0	0
48	1	69	150	1	54	0	120	0.677303864998976	1	0	0
49	0	144	108	0	53	0	122	2.15113826900779	1	0	0
50	1	133	10	1	51	0	120	0.702087910001865	1	0	0
51	0	12	132	0	50	0	122	0.702673225998296	1	0	0
52	1	81	2	1	49	0	120	0.815907005002373	1	0	0
53	0	30	105	0	48	0	122	0.586929063007119	1	0	0
54	1	113	102	1	47	0	120	0.688455112001975	1	0	0
55	1	42	41	0	45	0	122	0.681763746004435	0	0	0
56	1	85	56	1	49	0	120	0.771167612008867	1	0	0
57	0	46	110	0	48	0	122	0.905369084008271	1	0	0
58	1	10	45	1	47	0	120	0.737604588997783	1	0	0
59	0	90	48	1	46	0	122	0.665415039999061	1	0	0
60	1	76	33	0	44	0	120	0.803104464997887	1	0	0
61	1	89	141	1	43	0	122	0.687980838993099	0	0	0
62	1	19	74	1	47	0	120	0.712399078998715	1	0	0
63	1	55	52	1	46	0	120	0.777469264998217	1	0	0
64	0	104	124	0	45	0	122	0.679124064990901	1	0	0
65	1	13	19	0	44	0	122	0.808962012000848	0	0	0
66	1	79	15	1	47	0	120	0.900858016000711	1	0	0
67	0	87	89	0	46	0	120	1.16581974200381	0	0	0
68	0	136	55	0	49	0	122	0.57983211800456	1	0	0
69	0	48	100	0	48	0	122	0.625246365001658	1	0	0
70	1	20	19	0	47	0	120	0.581008866996854	1	0	0
71	0	49	139	0	46	0	122	0.67495661599969	1	0	0
72	0	97	94	1	45	0	122	0.676961110992124	1	0	0
73	0	87	56	0	44	0	122	1.10288034900441	1	0	0
74	0	109	33	1	43	0	122	1.28730461500527	1	0	0
75	0	93	114	0	42	0	120	1.1851858059963	0	0	0
76	1	78	8	0	45	0	120	0.8860606369999	1	0	0
77	0	99	10	0	44	0	122	0.791445136012044	1	0	0
78	0	90	33	0	43	0	122	0.716169599007117	1	0	0
79	1	44	140	0	42	0	122	0.677327672994579	0	0	0
80	0	139	123	0	44	0	122	1.99950745099341	1	0	0
81	0	75	129	1	44	0	122	0.586952564990497	1	0	0
82	1	138	116	0	43	0	120	0.593570137003553	1	0	0
83	1	104	22	0	42	0	122	0.630079987997306	0	0	0
84	1	82	108	0	44	0	120	0.602309181005694	1	0	0
85	1	98	21	1	43	0	120	0.6546364120004	1	0	0
86	1	80	136	1	43	0	120	0.761643321995507	1	0	0
87	0	13	110	1	42	0	122	0.615603222002392	1	0	0
88	1	81	69	0	41	0	122	0.738847786997212	0	0	0
89	0	48	120	0	43	0	122	0.619017113000154	1	0	0
90	0	135	150	0	43	0	122	0.735033860997646	1	0	0
91	1	81	85	0	42	0	120	0.994737829008955	1	0	0
92	0	124	112	0	41	0	122	0.671428319008555	1	0	0
93	1	66	92	0	40	0	122	0.729511187993921	0	0	0
94	1	108	92	1	43	0	120	0.644176514004357	1	0	0
95	0	8	80	1	42	0	122	0.863847522006836	1	0	0
96	0	28	81	0	41	0	122	0.706403941992903	1	0	0
97	0	38	18	0	40	0	120	0.586737720004749	0	0	0
98	1	66	33	1	42	0	122	1.17608678800752	0	0	0
99	0	29	25	0	45	0	122	1.20572424400598	1	0	0
100	1	3	83	1	44	0	122	1.01015197299421	0	0	0
101	1	18	76	0	46	0	120	0.739711529007764	1	0	0
102	0	72	106	0	43	0	122	0.816866555993329	1	0	0
103	1	61	38	0	41	0	120	1.24012015298649	1	0	0
104	0	39	133	1	38	0	122	0.835926314000972	1	0	0
105	1	68	112	1	36	0	122	3.11935630500375	0	0	0
106	1	146	106	1	43	0	122	0.727170314989053	0	0	0
107	1	32	7	0	51	0	122	1.1593042070017	0	0	0
108	1	144	63	1	57	0	120	0.734040818992071	1	0	0
109	1	110	146	0	55	0	120	0.828157089999877	1	0	0
110	0	4	115	0	53	0	122	0.808862830002909	1	0	0
111	0	24	43	0	51	0	120	1.16542936400219	0	0	0
112	0	61	91	0	57	0	122	0.603892568993615	1	0	0
113	1	138	28	1	56	0	120	0.624697628009017	1	0	0
114	1	27	22	0	54	0	120	0.643921641996712	1	0	0
115	1	5	35	1	52	0	120	0.783805536004365	1	0	0
116	1	116	55	1	50	0	122	1.12483515500207	0	0	0
117	1	139	29	1	56	0	120	0.763418407004792	1	0	0
118	0	130	89	0	54	0	122	0.778714050989947	1	0	0
119	0	114	6	0	52	0	122	0.808650637991377	1	0	0
120	1	121	102	1	50	0	122	0.725105475008604	0	0	0
121	1	93	56	1	56	0	120	0.725249401002657	1	0	0
122	1	79	107	0	54	0	120	0.74099248299899	1	0	0
123	1	47	32	0	52	0	120	0.68381403699459	1	0	0
124	0	116	84	1	51	0	122	0.837956475006649	1	0	0
125	0	142	17	0	49	0	122	0.824362034007208	1	0	0
126	1	122	10	0	48	0	120	1.02881293199607	1	0	0
127	1	67	75	0	46	0	120	1.16835735099448	1	0	0
128	0	101	56	0	45	0	122	1.20303329300077	1	0	0
129	1	40	59	1	43	0	120	1.37826574601058	1	0	0
130	0	106	43	0	42	0	122	0.720242016992415	1	0	0
131	0	61	20	1	40	0	122	0.632019577009487	1	0	0
132	0	30	126	1	39	0	122	1.62794485400082	1	0	0
133	0	82	74	1	37	0	122	0.687994617997902	1	0	0
134	0	111	92	1	36	0	122	0.761218527986784	1	0	0
135	0	147	95	0	34	0	122	0.711678282998037	1	0	0
136	1	1	32	0	33	0	120	0.559892706995015	1	0	0
137	0	148	55	0	32	0	120	1.03702354000416	0	0	0
138	1	129	129	1	36	0	120	0.793736637002439	1	0	0
139	1	19	118	1	35	0	122	0.886539366998477	0	0	0
140	0	148	32	1	39	0	122	0.637819491996197	1	0	0
141	1	32	70	0	37	0	122	2.37015212699771	0	0	0
142	1	145	13	0	41	0	120	0.688299360990641	1	0	0
143	0	88	120	0	40	0	122	0.994164357995032	1	0	0
144	0	66	126	0	38	0	122	0.717518868012121	1	0	0
145	0	6	123	1	37	0	122	0.614907062001294	1	0	0
146	1	6	129	1	36	0	120	1.17111172899604	1	0	0
147	1	19	8	1	35	0	120	1.0093897600018	1	0	0
148	0	61	92	1	34	0	122	0.821911549996003	1	0	0
149	0	79	140	1	32	0	122	0.697868949995609	1	0	0
150	1	56	87	1	31	0	122	0.842690841003787	0	0	0
151	0	25	140	0	35	0	122	0.98974927800009	1	0	0
152	1	123	24	0	33	0	120	1.39529951800068	1	0	0
153	0	24	35	1	32	0	120	1.17540345499583	0	0	0
154	1	29	139	0	36	0	122	0.757497052007238	0	0	0
155	0	107	104	1	39	0	122	0.804253958005575	1	0	0
156	1	3	40	1	38	0	120	1.08049315300013	1	0	0
157	1	52	40	1	37	0	122	0.938412806994165	0	0	0
158	0	99	84	0	40	0	122	1.41765595700417	1	0	0
159	0	105	15	1	39	0	122	1.52582625798823	1	0	0
160	1	47	82	1	38	0	120	0.693521345994668	1	0	0
161	0	19	107	0	37	0	122	0.758769066000241	1	0	0
162	0	132	77	0	36	0	120	1.57320838799933	0	0	0
163	0	32	128	1	39	0	122	0.61880418099463	1	0	0
164	1	106	99	0	38	0	120	0.687710379002965	1	0	0
165	1	90	46	1	37	0	120	0.759955752000678	1	0	0
166	0	9	68	0	36	0	122	0.606429731007665	1	0	0
167	0	28	44	0	35	0	120	1.14660106800147	0	0	0
168	0	144	90	0	38	0	122	0.842060328999651	1	0	0
169	0	115	67	0	37	0	120	2.23724083400157	0	0	0
170	1	42	115	0	40	0	122	0.663829083991004	0	0	0
171	0	125	61	1	43	0	122	0.714625975000672	1	0	0
172	1	46	105	0	42	0	122	0.771181842006627	0	0	0
173	1	9	147	1	44	0	122	1.03327342699049	0	0	0
174	1	104	78	1	47	0	122	0.772194636010681	0	0	0
175	0	84	132	0	50	0	122	0.746277276994078	1	0	0
176	0	16	27	1	49	0	122	0.736923899996327	1	0	0
177	1	31	99	0	48	0	122	0.760313199003576	0	0	0
178	1	111	43	0	51	0	120	0.623131150001427	1	0	0
179	1	55	17	1	50	0	120	0.64300111400371	1	0	0
180	1	87	145	1	49	0	122	1.03014837499359	0	0	0
181	0	107	67	0	52	0	122	1.80990133198793	1	0	0
182	1	39	12	0	51	0	120	1.41366478300188	1	0	0
183	0	109	11	1	50	0	122	0.795254017997649	1	0	0
184	0	139	144	0	49	0	122	0.863565314997686	1	0	0
185	0	59	40	0	48	0	122	0.761933087997022	1	0	0
186	0	145	150	0	48	0	122	0.608427105995361	1	0	0
187	0	145	90	0	47	0	122	0.571306752986857	1	0	0
188	0	2	42	0	46	0	122	0.6823065100034	1	0	0
189	1	69	1	1	45	0	120	0.644400894991122	1	0	0
190	1	129	142	1	44	0	120	2.05508705799002	1	0	0
191	1	63	67	0	43	0	120	1.70552751999639	1	0	0
192	0	5	60	1	42	0	122	0.67341516900342	1	0	0
193	0	93	33	0	42	0	122	1.0359775830002	1	0	0
194	0	61	94	0	41	0	120	1.06276150399935	0	0	0
195	0	100	13	0	43	0	122	0.693065907005803	1	0	0
196	1	15	59	0	42	0	122	0.854190967002069	0	0	0
197	0	127	82	0	45	0	122	0.856564821995562	1	0	0
198	0	27	41	0	44	0	122	1.01081179900211	1	0	0
199	0	30	1	0	43	0	122	0.855582303993287	1	0	0
200	1	132	107	1	42	0	120	0.649056507987552	1	0	0
201	1	89	83	1	42	0	120	1.83253340399824	1	0	0
202	0	92	13	0	39	0	122	1.69027764399652	1	0	0
203	0	118	120	0	37	0	122	0.926337068987777	1	0	0
204	0	84	29	1	34	0	122	1.01503971900092	1	0	0
205	1	27	55	0	32	0	120	1.10003835101088	1	0	0
206	1	88	13	1	29	0	120	0.785777147000772	1	0	0
207	1	57	59	1	27	0	120	1.0022946280078	1	0	0
208	1	17	106	0	24	0	120	0.878754463003133	1	0	0
209	1	125	21	0	22	0	120	0.864655045006657	1	0	0
210	1	121	70	0	19	0	122	0.794932044998859	0	0	0
211	0	72	145	1	27	0	122	0.7119120080024	1	0	0
212	1	86	104	1	25	0	120	0.960555854995619	1	0	0
213	1	117	105	0	22	0	120	1.10240623600839	1	0	0
214	1	30	123	1	20	0	122	1.0478621910006	0	0	0
215	1	133	24	1	27	0	120	1.10662210600276	1	0	0
216	1	65	106	1	25	0	120	1.39469026899314	1	0	0
217	0	108	77	0	23	0	122	0.935505444998853	1	0	0
218	1	77	22	1	20	0	122	0.911172178006382	0	0	0
219	1	73	62	1	27	0	120	0.887339515989879	1	0	0
220	0	62	131	0	25	0	120	0.832790827000281	0	0	0
221	0	105	99	0	31	0	122	2.49239803700766	1	0	0
222	1	27	76	1	29	0	122	1.0450405760057	0	0	0
223	1	119	86	1	34	0	120	0.591887929011136	1	0	0
224	0	134	105	0	33	0	122	0.716825412993785	1	0	0
225	1	144	99	0	31	0	122	0.692564333003247	0	0	0
226	0	91	110	1	36	0	122	0.734362837989465	1	0	0
227	0	125	59	1	34	0	122	0.69359105899639	1	0	0
228	1	133	69	0	33	0	122	0.637023949995637	0	0	0
229	0	19	111	1	38	0	122	0.769171528008883	1	0	0
230	1	1	52	0	36	0	120	1.22372839100717	1	0	0
231	0	150	56	0	34	0	122	0.62727030699898	1	0	0
232	1	69	40	0	33	0	122	0.871468202996766	0	0	0
233	0	17	74	0	37	0	122	0.59350823200657	1	0	0
234	1	98	74	1	36	0	120	0.589508151009795	1	0	0
235	1	61	76	0	34	0	122	0.546209712993004	0	0	0
236	0	140	39	0	39	0	122	0.689699834008934	1	0	0
237	1	83	62	0	38	0	120	0.667666734996601	1	0	0
238	1	63	15	1	36	0	120	0.868385121997562	1	0	0
239	1	112	139	1	35	0	122	1.62226378500054	0	0	0
240	0	103	103	0	39	0	122	0.962706829988747	1	0	0
241	0	148	11	1	38	0	122	1.00893531000474	1	0	0
242	1	53	20	1	36	0	120	1.37367130001076	1	0	0
243	1	68	70	0	35	0	120	0.779882688002544	1	0	0
244	0	129	41	1	34	0	122	0.713229520013556	1	0	0
245	1	67	43	1	32	0	120	0.765524337999523	1	0	0
246	0	92	79	0	31	0	122	1.25464856199687	1	0	0
247	1	133	30	1	30	0	122	0.57752104800602	0	0	0
248	0	9	83	0	34	0	122	0.654624657006934	1	0	0
249	0	69	101	0	32	0	122	0.593531495993375	1	0	0
250	0	119	23	0	31	0	122	0.934452032000991	1	0	0
251	1	47	30	0	30	0	120	0.710105817997828	1	0	0
252	1	72	125	1	29	0	120	0.701879467000253	1	0	0
253	0	32	14	0	27	0	122	0.670809205999831	1	0	0
254	1	92	87	1	26	0	120	0.840913416002877	1	0	0
255	1	82	147	1	25	0	120	0.980240851989947	1	0	0
256	0	88	117	1	24	0	122	0.689175502004218	1	0	0
257	1	70	134	0	23	0	120	0.71454963699216	1	0	0
258	1	136	45	0	22	0	122	1.83411365600477	0	0	0
259	1	124	115	0	25	0	120	1.00669456300966	1	0	0
260	1	92	53	0	24	0	120	0.818865268985974	1	0	0
261	0	98	135	0	23	0	120	0.967282541008899	0	0	0
262	0	92	25	0	26	0	122	0.796209908992751	1	0	0
263	0	46	137	1	25	0	122	0.865954005013919	1	0	0
264	1	136	69	1	24	0	122	1.07611125100811	0	0	0
265	0	125	4	0	27	0	122	0.989401600993006	1	0	0
266	0	105	85	0	26	0	122	0.803242070003762	1	0	0
267	1	121	28	1	25	0	120	0.807983989012428	1	0	0
268	1	120	46	0	24	0	122	0.867543186002877	0	0	0
269	0	115	146	1	27	0	120	0.989645590991131	0	0	0
270	0	47	14	0	30	0	122	0.81925056099135	1	0	0
271	1	8	51	1	29	0	122	0.887359223997919	0	0	0
272	0	60	25	0	32	0	122	0.584340053988853	1	0	0
273	0	140	96	0	31	0	122	0.83799077400181	1	0	0
274	1	131	5	1	30	0	120	0.64157491500373	1	0	0
275	1	74	118	0	29	0	122	1.30803432199173	0	0	0
276	1	31	55	0	32	0	120	0.628714955004398	1	0	0
277	0	77	139	1	31	0	122	0.720590923010604	1	0	0
278	1	113	148	1	30	0	120	0.696576673013624	1	0	0
279	1	121	47	1	29	0	122	1.03364469698863	0	0	0
280	0	66	42	1	32	0	120	0.677165132001392	0	0	0
281	1	17	125	1	35	0	120	0.678590281997458	1	0	0
282	0	126	24	0	34	0	122	0.567590765989735	1	0	0
283	0	39	116	1	33	0	122	1.35807835499872	1	0	0
284	0	98	29	0	32	0	122	0.915935785000329	1	0	0
285	0	36	54	1	31	0	122	0.683688667006209	1	0	0
286	1	145	60	0	30	0	120	0.605409755997243	1	0	0
287	0	42	65	0	29	0	122	0.769567714000004	1	0	0
288	0	143	145	0	28	0	120	1.08848103399214	0	0	0
289	0	24	115	1	31	0	122	0.905439284993918	1	0	0
290	1	51	6	1	30	0	120	0.666165728995111	1	0	0
291	0	96	119	1	29	0	122	0.731897465011571	1	0	0
292	1	99	54	1	29	0	122	0.803755648987135	0	0	0
293	1	11	9	1	31	0	122	1.04063141699589	0	0	0
294	1	140	2	1	34	0	120	0.635340827007894	1	0	0
295	1	91	53	1	33	0	120	0.862507379992167	1	0	0
296	1	148	71	0	32	0	122	0.993307545999414	0	0	0
297	0	146	26	1	34	0	122	0.798083646994201	1	0	0
298	0	128	94	1	34	0	120	0.823440029998892	0	0	0
299	0	140	27	1	36	0	120	0.662176974990871	0	0	0
300	1	100	8	1	39	0	120	0.737100383004872	1	0	0
