Trial	Gender_Face1	Face1_nb	Face2_nb	Right_left_flip	Nb_Bubbles	Overlap_Target	Response	RT	Accuracy	Simi2Target	Trial_Reward
1	1	43	57	0	40	0	122	3.15535951009952	1	0	0
2	1	66	75	1	37	0	120	2.19337560702115	0	0	0
3	1	20	114	0	45	0	122	6.72394093207549	1	0	0
4	1	18	38	1	43	0	120	7.11517854197882	0	0	0
5	0	21	134	0	50	0	120	1.39580286492128	1	0	0
6	1	118	144	1	48	0	122	4.67194412904792	1	0	0
7	1	91	106	1	46	0	122	5.05539002304431	1	0	0
8	0	127	4	0	44	0	120	2.27657171699684	1	0	0
9	0	6	57	1	42	0	120	1.84571507794317	1	0	0
10	0	5	36	1	40	0	120	6.14503870601766	1	0	0
11	1	112	30	0	38	0	120	6.76785030600149	0	0	0
12	0	31	33	1	44	0	120	6.32526937697548	1	0	0
13	1	118	140	0	42	0	122	1.91827463300433	1	0	0
14	0	78	106	1	40	0	120	1.03021512599662	1	0	0
15	1	109	16	0	38	0	122	0.841779632028192	1	0	0
16	0	64	24	1	37	0	120	1.67795132601168	1	0	0
17	1	109	17	1	35	0	122	4.55070581508335	1	0	0
18	0	37	51	1	33	0	122	2.31070440390613	0	0	0
19	1	68	145	0	39	0	120	5.47875203401782	0	0	0
20	1	75	131	0	44	0	120	47.1191062870203	0	0	0
21	0	120	10	0	49	0	122	0.520601265016012	0	0	0
22	1	103	48	1	55	0	122	0.856338144978508	1	0	0
23	0	62	21	0	53	0	120	4.16394594404846	1	0	0
24	0	109	77	0	51	0	120	1.80119439598639	1	0	0
25	0	7	98	0	50	0	120	3.35040416696575	1	0	0
26	1	66	22	1	48	0	120	6.12544637802057	0	0	0
27	1	99	29	1	53	0	122	2.07687086600345	1	0	0
28	0	87	104	1	51	0	120	4.04622716200538	1	0	0
29	0	12	148	1	50	0	122	1.21661656908691	0	0	0
30	0	118	100	1	54	0	120	7.5017637310084	1	0	0
31	0	28	49	1	53	0	120	0.894923195010051	1	0	0
32	1	25	136	1	51	0	122	1.83919912704732	1	0	0
33	1	25	20	0	50	0	122	1.21936813998036	1	0	0
34	1	119	87	0	49	0	122	0.951515899971128	1	0	0
35	0	90	31	0	47	0	120	1.96597408899106	1	0	0
36	1	100	35	0	46	0	122	0.683928332058713	1	0	0
37	1	4	72	1	45	0	120	1.36404920497444	0	0	0
38	1	139	5	0	49	0	122	0.603423874941655	1	0	0
39	0	50	123	0	47	0	120	1.59213518293109	1	0	0
40	1	37	8	1	46	0	122	1.30877856700681	1	0	0
41	0	49	82	1	45	0	120	1.68502533400897	1	0	0
42	0	72	68	1	43	0	120	0.893674688064493	1	0	0
43	0	82	19	1	42	0	120	0.695156121975742	1	0	0
44	1	144	121	0	41	0	122	1.60012639197521	1	0	0
45	1	81	82	0	40	0	120	1.47706563200336	0	0	0
46	0	38	44	1	43	0	120	2.72697320207953	1	0	0
47	0	35	106	1	42	0	122	2.1426176369423	0	0	0
48	0	122	20	0	46	0	122	1.74073456297629	0	0	0
49	1	96	128	1	49	0	122	0.79668856295757	1	0	0
50	0	71	122	0	48	0	120	1.03778902802151	1	0	0
51	0	140	48	0	47	0	120	0.717412557918578	1	0	0
52	1	25	60	0	46	0	122	1.09335058298893	1	0	0
53	1	126	56	0	45	0	120	0.606862162007019	0	0	0
54	1	114	53	1	48	0	122	2.0597633710131	1	0	0
55	1	101	34	0	47	0	122	2.30171271797735	1	0	0
56	0	122	7	0	46	0	120	0.957815394038334	1	0	0
57	0	6	40	0	45	0	120	1.14914532692637	1	0	0
58	1	4	19	0	44	0	122	1.86770051589701	1	0	0
59	1	7	117	0	43	0	120	0.493311099009588	0	0	0
60	1	83	82	0	46	0	122	1.03887775191106	1	0	0
61	1	125	9	1	45	0	122	0.658407502924092	1	0	0
62	1	96	89	0	44	0	122	0.681444760994054	1	0	0
63	1	9	27	1	43	0	122	2.41374769306276	1	0	0
64	0	26	113	1	42	0	122	1.12158882303629	0	0	0
65	1	23	44	1	45	0	122	1.60964350402355	1	0	0
66	1	59	58	1	44	0	122	0.837861062027514	1	0	0
67	0	118	28	0	43	0	120	1.12962956202682	1	0	0
68	0	31	52	0	42	0	120	0.872404230991378	1	0	0
69	1	78	89	1	41	0	122	0.803160005947575	1	0	0
70	0	12	5	0	40	0	120	0.735405649989843	1	0	0
71	1	43	21	0	39	0	122	0.527067780029029	1	0	0
72	0	139	10	1	38	0	120	0.606051690992899	1	0	0
73	1	126	96	0	37	0	120	1.05103522189893	0	0	0
74	0	131	109	0	40	0	120	1.24506450002082	1	0	0
75	0	33	108	0	39	0	120	0.760731808957644	1	0	0
76	0	117	86	1	38	0	122	0.902000711066648	0	0	0
77	1	76	111	1	40	0	122	0.726715176017024	1	0	0
78	0	84	147	0	40	0	120	0.686355539015494	1	0	0
79	1	115	133	1	39	0	120	2.88786031492054	0	0	0
80	1	24	124	0	41	0	120	1.42575345700607	0	0	0
81	0	150	89	1	44	0	120	0.605236066970974	1	0	0
82	0	20	77	0	43	0	122	1.12142638699152	0	0	0
83	1	115	30	1	46	0	120	0.793310700100847	0	0	0
84	1	79	112	1	48	0	120	0.910589086008258	0	0	0
85	1	93	123	1	51	0	122	17.6299550080439	1	0	0
86	1	86	8	1	50	0	120	0.946095207938924	0	0	0
87	1	84	10	0	53	0	122	61.281410033931	1	0	0
88	1	99	117	0	52	0	120	0.604342909995466	0	0	0
89	1	88	5	1	54	0	122	0.520485399058089	1	0	0
90	1	130	147	1	54	0	120	0.927597622969188	0	0	0
91	1	46	143	0	56	0	120	0.919773934991099	0	0	0
92	1	4	43	0	59	0	120	1.86457379395142	0	0	0
93	1	49	45	0	61	0	122	2.64235398196615	1	0	0
94	0	65	149	0	60	0	120	6.04502065002453	1	0	0
95	1	141	94	0	60	0	120	1.55193389696069	0	0	0
96	0	86	126	0	62	0	120	1.31186027894728	1	0	0
97	0	150	106	0	61	0	120	11.3595972650219	1	0	0
98	1	36	91	1	60	0	122	0.648859390057623	1	0	0
99	0	123	4	0	59	0	120	0.639716700999998	1	0	0
100	0	142	31	0	59	0	120	0.659250907017849	1	0	0
101	0	14	1	0	58	0	120	1.35842832492199	1	0	0
102	1	25	48	1	55	0	122	0.611005794024095	1	0	0
103	1	77	110	1	53	0	120	1.66196874307934	0	0	0
104	0	111	78	0	61	0	122	0.784104238031432	0	0	0
105	0	18	74	1	67	0	120	0.925239000935107	1	0	0
106	1	93	81	0	65	0	122	1.90158589894418	1	0	0
107	0	30	146	0	63	0	122	0.646579275024123	0	0	0
108	1	72	62	1	70	0	120	0.609937898931094	0	0	0
109	0	110	15	0	76	0	120	0.611203553038649	1	0	0
110	1	25	9	1	74	0	120	0.714633715921082	0	0	0
111	0	3	120	1	80	0	120	1.00248612998985	1	0	0
112	1	80	138	1	78	0	122	1.13564142899122	1	0	0
113	1	90	91	1	76	0	120	1.998013620032	0	0	0
114	1	50	98	0	81	0	122	0.827363519929349	1	0	0
115	1	107	131	1	80	0	122	0.550838498980738	1	0	0
116	0	98	136	0	78	0	120	0.933653998072259	1	0	0
117	0	51	95	1	76	0	120	0.645324465935118	1	0	0
118	0	59	82	1	75	0	120	0.592344922013581	1	0	0
119	0	141	29	0	73	0	120	0.678021320956759	1	0	0
120	0	58	80	0	71	0	120	0.695751574006863	1	0	0
121	1	133	68	1	70	0	122	0.64881811500527	1	0	0
122	0	124	73	1	68	0	120	0.611620638985187	1	0	0
123	0	37	5	1	67	0	120	0.532866684021428	1	0	0
124	1	120	71	1	65	0	120	0.58376175398007	0	0	0
125	0	79	116	0	70	0	120	0.564821211970411	1	0	0
126	1	73	110	1	68	0	122	0.962250390090048	1	0	0
127	0	81	98	0	67	0	120	0.497338501969352	1	0	0
128	0	46	134	0	65	0	120	0.523010401986539	1	0	0
129	0	16	61	0	64	0	120	0.531019968097098	1	0	0
130	1	52	76	0	62	0	120	0.602509562973864	0	0	0
131	1	143	68	1	67	0	120	1.5991300229216	0	0	0
132	0	58	19	1	71	0	120	0.699636837933213	1	0	0
133	1	4	95	0	70	0	120	2.54092039598618	0	0	0
134	1	85	121	1	74	0	122	0.588413731078617	1	0	0
135	1	107	150	0	73	0	122	0.49809881998226	1	0	0
136	0	33	36	0	71	0	120	0.803913590032607	1	0	0
137	0	120	111	0	70	0	122	0.592306943959557	0	0	0
138	0	72	125	1	74	0	120	0.572196383960545	1	0	0
139	0	135	147	0	73	0	120	0.474797368049622	1	0	0
140	0	69	100	0	71	0	120	0.549129442078993	1	0	0
141	1	117	133	1	70	0	122	0.81278551905416	1	0	0
142	0	129	138	0	69	0	120	0.528239488019608	1	0	0
143	0	72	60	1	68	0	120	0.440121701918542	1	0	0
144	1	7	61	1	66	0	122	1.18793824408203	1	0	0
145	1	104	12	0	65	0	122	1.06536760705058	1	0	0
146	1	79	104	0	64	0	122	0.875155772082508	1	0	0
147	0	50	18	1	63	0	120	0.772889532032423	1	0	0
148	1	131	120	1	62	0	120	0.371005880995654	0	0	0
149	0	77	78	1	65	0	120	0.495985885965638	1	0	0
150	0	30	120	0	64	0	120	0.409229626995511	1	0	0
151	1	109	39	1	63	0	120	0.734181968960911	0	0	0
152	0	88	82	1	66	0	120	0.606142511009239	1	0	0
153	0	36	19	0	65	0	120	0.673414194025099	1	0	0
154	1	58	68	1	64	0	120	0.556610101019032	0	0	0
155	0	10	66	1	67	0	120	0.683576563955285	1	0	0
156	0	118	1	1	66	0	120	0.627750415005721	1	0	0
157	0	46	19	0	65	0	120	0.616443361039273	1	0	0
158	1	90	74	0	64	0	122	0.644603217020631	1	0	0
159	1	3	97	0	63	0	120	1.35190576396417	0	0	0
160	1	72	130	1	66	0	122	1.07044074905571	1	0	0
161	0	64	85	0	65	0	120	0.679728885996155	1	0	0
162	0	63	28	1	64	0	120	0.617197236046195	1	0	0
163	0	119	21	0	63	0	120	0.57442392304074	1	0	0
164	1	136	25	0	62	0	120	0.507655723020434	0	0	0
165	1	84	46	1	65	0	122	1.07752746599726	1	0	0
166	0	38	84	1	64	0	122	1.15883264900185	0	0	0
167	0	121	126	1	67	0	120	0.958378556068055	1	0	0
168	0	72	50	1	66	0	120	0.619735965970904	1	0	0
169	0	83	75	1	65	0	120	0.880092854029499	1	0	0
170	1	70	111	1	64	0	122	5.79221093305387	1	0	0
171	0	145	138	0	63	0	120	0.549680942087434	1	0	0
172	1	110	105	1	63	0	120	1.09264119609725	0	0	0
173	0	45	25	0	65	0	120	0.606193276005797	1	0	0
174	0	7	21	0	64	0	120	2.79528157296591	1	0	0
175	1	54	58	0	64	0	122	1.12680888804607	1	0	0
176	1	30	131	0	63	0	120	1.22403887205292	0	0	0
177	1	64	69	1	65	0	122	1.16287240793463	1	0	0
178	1	70	20	1	64	0	122	0.954159465967678	1	0	0
179	0	83	142	1	64	0	120	0.712044819956645	1	0	0
180	0	17	25	0	63	0	120	0.608609563088976	1	0	0
181	0	40	149	1	62	0	120	0.532959742005914	1	0	0
182	0	22	68	0	61	0	120	0.517239421023987	1	0	0
183	1	102	103	1	60	0	122	1.63690385897644	1	0	0
184	1	46	132	0	59	0	122	0.808610904961824	1	0	0
185	0	121	91	1	59	0	120	1.0449922910193	1	0	0
186	0	4	19	0	58	0	120	0.632092666928656	1	0	0
187	1	116	75	1	57	0	120	0.676017132005654	0	0	0
188	0	107	147	0	59	0	120	0.750453054904938	1	0	0
189	0	9	71	1	59	0	120	0.525087742949836	1	0	0
190	1	147	18	1	58	0	120	0.492788413073868	0	0	0
191	0	141	55	1	60	0	120	0.613681731978431	1	0	0
192	0	61	110	1	59	0	120	0.601844727061689	1	0	0
193	1	149	19	0	59	0	120	0.611821667989716	0	0	0
194	1	118	121	1	61	0	122	1.09184596210252	1	0	0
195	0	80	43	1	60	0	120	0.787930263089947	1	0	0
196	1	79	50	1	59	0	120	0.513697685091756	0	0	0
197	1	62	148	1	62	0	122	0.921874093008228	1	0	0
198	0	8	134	0	61	0	120	0.626214648946188	1	0	0
199	1	6	120	0	60	0	122	0.821153562981635	1	0	0
200	0	54	78	0	59	0	120	5.20906661706977	1	0	0
201	1	92	125	1	59	0	122	2.32315229799133	1	0	0
202	0	34	116	0	56	0	122	0.754734913934954	0	0	0
203	0	6	26	1	64	0	120	2.19888577901293	1	0	0
204	0	38	139	0	62	0	120	0.682919680024497	1	0	0
205	0	43	7	1	60	0	120	0.692130901035853	1	0	0
206	0	41	33	0	58	0	120	0.501079758978449	1	0	0
207	1	13	45	1	55	0	120	0.502595789032057	0	0	0
208	0	52	84	0	62	0	120	0.502991468994878	1	0	0
209	0	41	70	0	60	0	120	0.46416752692312	1	0	0
210	0	74	116	1	58	0	120	0.470845574978739	1	0	0
211	0	142	38	0	56	0	120	0.475782130961306	1	0	0
212	1	96	72	1	54	0	120	0.429058003006503	0	0	0
213	1	27	36	1	60	0	122	1.46585936099291	1	0	0
214	1	113	138	0	58	0	122	2.33154131192714	1	0	0
215	1	124	101	0	56	0	122	1.74664376594592	1	0	0
216	1	111	54	1	54	0	120	0.537479171995074	0	0	0
217	1	52	76	0	60	0	122	0.993582875002176	1	0	0
218	0	123	44	1	58	0	120	0.622352233040147	1	0	0
219	0	41	92	1	56	0	120	0.698316826950759	1	0	0
220	1	6	24	1	54	0	122	0.587425488978624	1	0	0
221	1	77	143	1	53	0	122	0.744094526977278	1	0	0
222	1	97	45	0	51	0	122	0.735918585094623	1	0	0
223	1	60	149	1	49	0	122	1.04688116093166	1	0	0
224	0	24	85	1	47	0	120	1.16935618303251	1	0	0
225	0	67	128	1	46	0	120	1.23149168805685	1	0	0
226	0	62	89	1	44	0	120	0.995798606076278	1	0	0
227	0	101	67	0	42	0	120	0.525847075972706	1	0	0
228	1	28	110	1	41	0	122	0.649153437931091	1	0	0
229	1	12	93	1	39	0	120	0.820011007948779	0	0	0
230	1	125	37	0	44	0	120	0.632238673977554	0	0	0
231	0	61	69	0	49	0	120	0.611748510971665	1	0	0
232	1	90	25	0	47	0	120	0.679012203938328	0	0	0
233	0	49	50	0	52	0	120	0.449098502052948	1	0	0
234	1	128	14	0	50	0	122	0.932945316075347	1	0	0
235	1	138	85	0	49	0	122	0.660226193955168	1	0	0
236	1	127	55	0	47	0	122	0.968610401963815	1	0	0
237	1	122	13	1	46	0	122	0.668471107026562	1	0	0
238	0	150	60	1	45	0	120	1.15927107294556	1	0	0
239	0	17	1	0	43	0	120	0.597481313976459	1	0	0
240	1	9	149	0	42	0	122	0.7470988369314	1	0	0
241	1	65	79	1	40	0	120	0.792948023066856	0	0	0
242	1	17	53	1	45	0	122	3.26218706101645	1	0	0
243	1	105	2	1	43	0	120	1.29587744490709	0	0	0
244	1	53	107	0	47	0	122	3.8978477549972	1	0	0
245	0	70	93	0	46	0	120	0.537229808047414	1	0	0
246	1	40	28	1	44	0	120	0.905337413074449	0	0	0
247	0	120	67	0	48	0	120	1.37011422100477	1	0	0
248	1	22	115	1	47	0	120	1.34398207103368	0	0	0
249	1	9	78	1	51	0	120	6.97580531600397	0	0	0
250	0	67	85	1	55	0	120	1.15697394695599	1	0	0
251	0	138	29	1	53	0	120	1.1960394870257	1	0	0
252	1	149	100	1	52	0	120	0.664374246029183	0	0	0
253	0	6	22	1	56	0	120	0.771224912023172	1	0	0
254	1	38	1	1	55	0	120	0.769764308002777	0	0	0
255	0	68	66	1	58	0	120	0.567295538028702	1	0	0
256	0	28	145	0	57	0	120	0.621626081992872	1	0	0
257	0	54	84	0	56	0	120	0.496996100060642	1	0	0
258	1	92	132	0	55	0	122	1.29818925110158	1	0	0
259	1	66	55	1	53	0	120	0.571179774939083	0	0	0
260	0	120	82	0	57	0	120	0.634059684001841	1	0	0
261	1	41	124	0	56	0	120	0.661337705911137	0	0	0
262	1	94	21	1	59	0	120	0.358775455970317	0	0	0
263	1	131	117	0	62	0	122	0.878155634971336	1	0	0
264	0	125	131	1	61	0	120	0.688066804897971	1	0	0
265	1	54	113	0	60	0	122	0.585511639947072	1	0	0
266	0	65	1	1	59	0	120	0.686299065942876	1	0	0
267	0	70	105	1	58	0	120	0.519607899943367	1	0	0
268	1	139	8	0	57	0	122	0.711552688968368	1	0	0
269	0	57	66	0	56	0	120	0.573129264987074	1	0	0
270	0	40	123	1	55	0	120	0.550068775075488	1	0	0
271	1	140	119	1	54	0	122	0.594076765934005	1	0	0
272	0	95	106	0	53	0	120	0.554511840920895	1	0	0
273	0	2	39	1	52	0	120	0.727824395056814	1	0	0
274	1	135	120	0	51	0	122	0.608162187971175	1	0	0
275	1	94	92	0	50	0	122	0.98043786699418	1	0	0
276	0	121	27	1	49	0	120	0.689891490037553	1	0	0
277	0	131	76	0	48	0	120	0.451859546010382	1	0	0
278	1	120	113	1	47	0	120	0.382102314964868	0	0	0
279	1	106	109	0	50	0	122	0.451562490081415	1	0	0
280	0	141	148	1	49	0	120	0.662821976002306	1	0	0
281	1	130	40	1	48	0	120	0.520247112959623	0	0	0
282	0	20	114	1	51	0	122	0.536240470944904	0	0	0
283	0	103	84	1	54	0	120	0.335451292921789	1	0	0
284	1	18	4	1	53	0	120	0.31090971804224	0	0	0
285	0	3	142	1	55	0	120	0.503047514939681	1	0	0
286	0	52	39	0	54	0	120	0.367613731999882	1	0	0
287	1	99	12	1	54	0	122	0.57387090602424	1	0	0
288	0	63	88	1	53	0	120	0.747927924036048	1	0	0
289	0	73	84	1	52	0	120	0.57833499496337	1	0	0
290	0	85	23	1	51	0	120	0.502103364909999	1	0	0
291	0	94	5	0	50	0	120	0.832263725926168	1	0	0
292	1	50	33	0	49	0	120	0.8447741989512	0	0	0
293	0	119	63	0	52	0	122	0.656135850935243	0	0	0
294	1	127	115	0	54	0	120	0.522877948009409	0	0	0
295	1	10	76	0	57	0	122	0.618809918989427	1	0	0
296	0	110	124	0	56	0	120	0.574832307058387	1	0	0
297	0	146	147	1	55	0	120	0.77248194499407	1	0	0
298	1	74	107	1	54	0	120	0.85857975797262	0	0	0
299	0	56	49	1	57	0	122	1.0687290050555	0	0	0
300	0	61	28	1	59	0	122	0.791078013950028	0	0	0
