Trial	Gender_Face1	Face1_nb	Face2_nb	Right_left_flip	Nb_Bubbles	Overlap_Target	Response	RT	Accuracy	Simi2Target	Trial_Reward
1	0	72	90	0	56	0	120	0.856656910968013	1	0	0
2	1	60	38	1	53	0	122	0.793362703057937	1	0	0
3	0	142	79	0	51	0	120	0.700192140066065	1	0	0
4	1	22	91	0	48	0	122	0.811179729062133	1	0	0
5	1	70	70	0	46	0	122	0.911940790014341	1	0	0
6	1	144	117	1	43	0	122	0.907300345017575	1	0	0
7	1	32	131	1	41	0	122	0.777008504024707	1	0	0
8	0	131	93	1	38	0	120	0.77795729204081	1	0	0
9	0	13	2	0	36	0	122	0.869903985993005	0	0	0
10	1	91	53	1	44	0	122	0.693177461973391	1	0	0
11	0	39	81	1	41	0	120	1.45070838800166	1	0	0
12	1	4	93	1	39	0	122	1.97360318398569	1	0	0
13	0	24	15	1	37	0	120	0.916230824077502	1	0	0
14	1	60	134	0	35	0	122	0.752222543000244	1	0	0
15	1	31	142	0	32	0	122	0.763654613983817	1	0	0
16	1	148	39	0	30	0	120	1.48364672099706	0	0	0
17	1	19	92	0	37	0	120	0.997905196039937	0	0	0
18	0	98	46	0	44	0	122	0.859175188932568	0	0	0
19	1	36	111	0	50	0	122	0.929586844984442	1	0	0
20	0	1	127	0	48	0	120	1.24618417106103	1	0	0
21	0	103	44	0	46	0	120	1.14643205003813	1	0	0
22	0	93	136	0	44	0	120	1.36125543294474	1	0	0
23	0	147	114	0	42	0	120	3.68884401500691	1	0	0
24	0	68	31	0	40	0	120	1.25050936499611	1	0	0
25	1	99	137	0	39	0	122	1.03792773897294	1	0	0
26	0	79	79	1	37	0	120	4.00891988503281	1	0	0
27	0	71	34	0	35	0	122	1.96610483701807	0	0	0
28	1	27	92	1	40	0	122	0.925113974954002	1	0	0
29	0	102	17	1	38	0	120	0.978260680916719	1	0	0
30	1	149	142	1	37	0	120	0.72356455004774	0	0	0
31	1	106	105	1	42	0	122	3.06821258598939	1	0	0
32	0	138	27	1	40	0	120	2.08565299399197	1	0	0
33	0	137	103	1	39	0	120	0.704385300981812	1	0	0
34	0	146	43	1	37	0	120	2.39439046208281	1	0	0
35	1	93	89	0	36	0	122	1.49496196699329	1	0	0
36	0	26	29	1	34	0	120	0.625031448085792	1	0	0
37	0	110	141	0	33	0	122	1.27697391493712	0	0	0
38	1	86	129	1	37	0	120	1.03018653299659	0	0	0
39	1	48	38	0	42	0	120	0.987713137059473	0	0	0
40	0	128	107	1	46	0	120	0.788954453892075	1	0	0
41	0	64	94	0	45	0	120	0.687267280067317	1	0	0
42	0	103	87	1	43	0	120	1.36159223201685	1	0	0
43	1	69	23	1	42	0	122	1.19263239996508	1	0	0
44	1	43	83	1	40	0	122	2.19064211903606	1	0	0
45	1	60	51	0	39	0	122	0.692402602988295	1	0	0
46	1	61	97	1	38	0	122	0.710154409985989	1	0	0
47	1	141	67	1	36	0	122	0.95988285401836	1	0	0
48	0	108	138	0	35	0	120	1.2787394010229	1	0	0
49	1	13	101	0	34	0	122	1.02458834310528	1	0	0
50	1	3	31	1	33	0	122	0.733039887039922	1	0	0
51	0	34	15	0	31	0	120	0.773553733015433	1	0	0
52	1	74	126	0	30	0	122	1.02844857505988	1	0	0
53	1	147	93	0	29	0	120	0.984494307893328	0	0	0
54	1	73	44	1	32	0	122	2.51933668507263	1	0	0
55	0	21	138	0	31	0	122	1.69593162101228	0	0	0
56	1	125	144	1	35	0	122	1.0568087809952	1	0	0
57	1	57	100	1	34	0	120	1.82886046404019	0	0	0
58	1	62	12	1	37	0	120	0.952185517991893	0	0	0
59	0	9	55	0	41	0	120	3.11617181205656	1	0	0
60	0	77	111	1	40	0	120	0.96836240706034	1	0	0
61	0	84	70	0	38	0	122	0.715768376947381	0	0	0
62	0	59	31	0	42	0	122	0.904093358898535	0	0	0
63	0	80	140	1	45	0	122	0.875927208922803	0	0	0
64	0	130	1	1	49	0	120	1.77908653696068	1	0	0
65	1	124	112	1	48	0	122	2.04885516804643	1	0	0
66	1	106	36	0	47	0	122	0.692262653959915	1	0	0
67	0	34	15	1	45	0	120	0.878208299051039	1	0	0
68	1	48	139	1	44	0	122	1.44806666695513	1	0	0
69	1	92	22	1	43	0	122	0.820118988980539	1	0	0
70	1	88	111	0	42	0	122	1.1528311240254	1	0	0
71	1	109	104	0	41	0	122	0.951813641004264	1	0	0
72	0	23	94	0	40	0	120	0.671158112003468	1	0	0
73	1	25	110	1	39	0	120	0.914153756923042	0	0	0
74	0	102	102	0	42	0	120	0.850660586031154	1	0	0
75	1	48	41	0	41	0	122	3.2021534088999	1	0	0
76	1	51	57	1	40	0	122	0.731228156946599	1	0	0
77	1	78	45	0	39	0	122	0.859996852930635	1	0	0
78	0	123	17	0	38	0	120	2.84670227894094	1	0	0
79	1	137	147	0	37	0	122	1.51332526293118	1	0	0
80	1	112	43	0	36	0	122	0.762678758008406	1	0	0
81	1	46	85	0	35	0	122	1.36978674901184	1	0	0
82	1	96	64	1	34	0	122	0.799641737015918	1	0	0
83	1	112	24	1	34	0	122	1.94122954492923	1	0	0
84	0	98	93	1	33	0	120	1.30080471199472	1	0	0
85	1	90	102	1	32	0	122	3.16661170695443	1	0	0
86	0	87	39	0	31	0	120	0.885228406987153	1	0	0
87	1	121	65	0	30	0	122	2.42064170504455	1	0	0
88	0	93	81	1	29	0	120	0.763410599087365	1	0	0
89	1	138	36	1	28	0	122	1.12297136802226	1	0	0
90	0	137	18	1	28	0	120	0.988016847055405	1	0	0
91	0	65	115	0	27	0	120	0.913239035988227	1	0	0
92	0	94	76	1	26	0	120	0.934364889049903	1	0	0
93	1	57	79	1	25	0	122	0.889951691962779	1	0	0
94	0	91	20	0	25	0	120	1.27303572301753	1	0	0
95	0	50	24	1	24	0	122	1.44599538203329	0	0	0
96	1	11	116	0	26	0	122	1.96128205803689	1	0	0
97	1	117	136	1	25	0	120	1.28066361905076	0	0	0
98	1	32	123	1	28	0	120	0.843064569984563	0	0	0
99	1	97	82	1	30	0	122	1.00642873998731	1	0	0
100	1	102	53	1	29	0	122	0.960036701988429	1	0	0
101	1	125	119	1	28	0	120	1.17696337599773	0	0	0
102	0	32	43	1	36	0	120	0.775557365035638	1	0	0
103	1	60	120	1	33	0	122	0.623801741981879	1	0	0
104	1	94	149	1	31	0	122	1.0652350949822	1	0	0
105	1	16	112	1	29	0	120	0.84418536501471	0	0	0
106	0	112	114	1	36	0	120	0.767802767106332	1	0	0
107	1	108	19	0	34	0	122	1.31128476304002	1	0	0
108	1	123	89	1	32	0	120	2.07976270501968	0	0	0
109	1	107	49	1	38	0	120	1.7778735300526	0	0	0
110	0	44	150	0	44	0	120	1.72852762101684	1	0	0
111	0	58	146	0	42	0	120	0.768592776963487	1	0	0
112	0	149	35	1	41	0	120	1.0551507580094	1	0	0
113	1	45	24	0	39	0	122	1.06656110100448	1	0	0
114	0	21	70	1	37	0	120	0.909533764002845	1	0	0
115	1	139	68	1	35	0	122	2.68942284805235	1	0	0
116	0	82	94	1	33	0	120	0.800022335024551	1	0	0
117	0	71	16	0	31	0	122	1.30579003202729	0	0	0
118	0	118	104	1	37	0	122	1.17443300306331	0	0	0
119	0	30	83	0	42	0	120	1.37313785695005	1	0	0
120	1	147	10	1	41	0	120	1.38759500696324	0	0	0
121	0	89	74	1	46	0	120	2.53352181997616	1	0	0
122	1	84	42	0	44	0	122	0.792981431004591	1	0	0
123	1	8	108	1	42	0	122	0.731239325948991	1	0	0
124	1	89	113	0	41	0	122	0.902116053039208	1	0	0
125	0	92	149	0	39	0	120	1.59364423307125	1	0	0
126	1	134	74	0	38	0	122	1.64556929108221	1	0	0
127	1	62	130	0	36	0	122	1.28944867104292	1	0	0
128	1	50	16	1	35	0	122	2.08330826705787	1	0	0
129	1	31	147	0	33	0	122	0.95669881592039	1	0	0
130	0	58	37	0	32	0	120	2.00043501309119	1	0	0
131	1	39	103	0	30	0	120	1.53693308494985	0	0	0
132	0	130	91	1	35	0	120	1.83346634893678	1	0	0
133	0	20	143	1	33	0	120	1.28493101196364	1	0	0
134	1	5	22	1	32	0	122	2.98272962297779	1	0	0
135	1	27	110	1	30	0	122	1.05358200101182	1	0	0
136	1	41	63	0	29	0	122	0.934214204899035	1	0	0
137	0	50	48	0	28	0	120	1.13666315202136	1	0	0
138	1	40	96	1	26	0	120	0.969129909994081	0	0	0
139	0	103	129	1	30	0	120	0.87169622303918	1	0	0
140	0	150	141	1	29	0	120	0.854764393996447	1	0	0
141	1	127	54	0	28	0	120	1.02138768800069	0	0	0
142	1	56	116	0	32	0	122	1.25751743896399	1	0	0
143	0	99	4	1	30	0	120	0.7412580170203	1	0	0
144	1	56	116	1	29	0	122	1.33265438792296	1	0	0
145	1	78	148	0	28	0	122	0.645208916044794	1	0	0
146	1	138	72	1	27	0	122	0.648536951979622	1	0	0
147	1	55	104	0	26	0	122	0.628500150050968	1	0	0
148	1	60	123	0	25	0	122	0.680341503000818	1	0	0
149	0	119	9	1	23	0	120	0.674515448976308	1	0	0
150	0	48	2	1	22	0	120	1.48488892707974	1	0	0
151	1	91	1	0	21	0	122	0.727720487047918	1	0	0
152	0	16	8	1	20	0	120	0.775150276022032	1	0	0
153	1	26	4	0	19	0	122	0.685828440939076	1	0	0
154	0	1	3	0	18	0	120	1.08005446300376	1	0	0
155	0	71	138	1	17	0	120	0.874189055990428	1	0	0
156	1	58	126	1	16	0	120	0.732765267021023	0	0	0
157	0	36	69	1	19	0	120	0.812966309953481	1	0	0
158	1	42	139	0	18	0	122	0.585568070993759	1	0	0
159	1	50	67	0	17	0	122	0.9280960370088	1	0	0
160	0	53	49	0	16	0	120	1.08880544197746	1	0	0
161	0	99	94	1	15	0	122	3.62663212895859	0	0	0
162	0	13	5	1	18	0	120	0.998630799935199	1	0	0
163	0	132	97	0	17	0	120	1.11209232197143	1	0	0
164	0	124	143	1	16	0	122	0.900885986047797	0	0	0
165	0	76	20	1	19	0	120	0.779174861032516	1	0	0
166	1	20	47	1	18	0	122	1.6520928950049	1	0	0
167	0	46	100	0	17	0	122	1.1034681040328	0	0	0
168	0	51	48	0	20	0	120	0.665060661034659	1	0	0
169	1	131	95	0	19	0	120	0.82003696099855	0	0	0
170	0	134	149	1	22	0	120	1.47233250399586	1	0	0
171	1	5	147	1	21	0	122	0.738952241023071	1	0	0
172	1	137	90	0	20	0	122	1.04282375099137	1	0	0
173	1	117	47	0	19	0	122	1.76379608095158	1	0	0
174	0	116	24	1	18	0	120	1.01294621499255	1	0	0
175	0	25	147	1	17	0	122	1.69010293995962	0	0	0
176	1	122	122	1	20	0	122	0.783429289003834	1	0	0
177	1	41	36	1	19	0	120	1.41031556995586	0	0	0
178	1	27	47	0	21	0	122	0.671042794012465	1	0	0
179	0	49	105	0	20	0	122	1.77770597103518	0	0	0
180	1	35	52	1	23	0	120	0.688775974093005	0	0	0
181	1	92	141	0	26	0	122	0.730216747964732	1	0	0
182	1	56	95	0	25	0	120	1.16217270307243	0	0	0
183	1	78	16	1	27	0	122	0.689651363063604	1	0	0
184	0	133	64	0	26	0	122	2.26690302696079	0	0	0
185	0	51	131	1	29	0	120	0.629779163049534	1	0	0
186	0	42	140	0	28	0	122	0.946078576962464	0	0	0
187	0	122	72	1	31	0	120	0.681431548087858	1	0	0
188	0	71	126	0	30	0	120	0.699837196967565	1	0	0
189	1	72	32	0	29	0	122	2.11554676399101	1	0	0
190	1	64	104	1	28	0	122	0.981090562068857	1	0	0
191	0	81	27	1	27	0	120	0.751907753059641	1	0	0
192	1	48	35	0	27	0	122	1.06784154195338	1	0	0
193	1	146	36	1	26	0	120	0.621981899021193	0	0	0
194	1	1	146	0	28	0	120	0.779069210984744	0	0	0
195	1	62	96	1	31	0	122	1.05701833299827	1	0	0
196	0	97	124	1	30	0	120	0.707951065036468	1	0	0
197	1	84	129	0	29	0	122	0.949568226002157	1	0	0
198	0	41	15	0	28	0	120	0.7895523639163	1	0	0
199	0	15	93	0	27	0	120	0.998852106975392	1	0	0
200	1	129	57	1	27	0	122	0.744358576019295	1	0	0
201	1	61	85	0	26	0	122	1.63172888394911	1	0	0
202	1	121	110	1	23	0	122	1.05703241599258	1	0	0
203	0	119	86	0	21	0	120	0.582638947060332	1	0	0
204	1	4	26	0	18	0	122	1.77748654503375	1	0	0
205	0	111	142	1	16	0	122	2.68028965895064	0	0	0
206	0	90	52	0	23	0	120	0.690050382982008	1	0	0
207	1	83	3	1	21	0	122	0.724656022968702	1	0	0
208	1	21	126	0	19	0	122	0.748963344027288	1	0	0
209	0	37	145	0	17	0	120	0.788489863974974	1	0	0
210	1	53	9	0	14	0	122	0.794413469964638	1	0	0
211	0	94	52	0	12	0	122	1.02073735895101	0	0	0
212	1	122	113	1	19	0	122	0.780606664018705	1	0	0
213	1	21	88	1	17	0	120	1.15472946700174	0	0	0
214	1	66	39	0	23	0	120	0.953969468944706	0	0	0
215	1	47	56	1	29	0	120	1.60621491202619	0	0	0
216	0	71	102	1	35	0	120	0.694366262992844	1	0	0
217	0	47	34	1	34	0	120	0.704175278078765	1	0	0
218	0	51	92	0	32	0	120	0.697398921940476	1	0	0
219	1	14	127	1	30	0	120	0.731556429993361	0	0	0
220	0	4	16	1	36	0	120	0.64314879802987	1	0	0
221	0	130	141	0	34	0	120	0.831674072076567	1	0	0
222	0	140	147	0	32	0	120	0.595013243029825	1	0	0
223	1	124	6	0	30	0	120	1.016971668927	0	0	0
224	0	134	116	1	36	0	120	0.758230439969338	1	0	0
225	1	10	107	1	34	0	122	1.16589211195242	1	0	0
226	0	111	40	0	32	0	120	0.71654530998785	1	0	0
227	1	127	10	1	31	0	122	1.56490993499756	1	0	0
228	0	88	143	1	29	0	120	1.93970060406718	1	0	0
229	0	92	70	1	28	0	120	1.54638242104556	1	0	0
230	1	67	42	0	26	0	122	1.61110752110835	1	0	0
231	1	12	53	0	25	0	122	1.06807035196107	1	0	0
232	0	46	66	1	23	0	120	1.21851450705435	1	0	0
233	0	89	55	0	22	0	120	0.951467358972877	1	0	0
234	1	93	116	0	20	0	120	1.12643911910709	0	0	0
235	0	144	40	1	25	0	120	0.887413037009537	1	0	0
236	1	131	98	1	23	0	120	0.921498556970619	0	0	0
237	1	136	84	1	28	0	122	1.91719115199521	1	0	0
238	0	15	87	1	26	0	120	0.738276423071511	1	0	0
239	0	21	35	0	25	0	120	0.786415857961401	1	0	0
240	0	121	50	0	23	0	120	1.24057643103879	1	0	0
241	0	69	10	1	22	0	120	0.756411462905817	1	0	0
242	1	8	97	0	21	0	120	1.52314059494529	0	0	0
243	1	83	66	0	25	0	122	0.900413758005016	1	0	0
244	1	123	31	1	23	0	122	1.79750572796911	1	0	0
245	1	142	138	1	22	0	120	2.0433923129458	0	0	0
246	1	90	59	0	26	0	122	0.725747577031143	1	0	0
247	1	62	72	0	25	0	122	1.31158782192506	1	0	0
248	0	120	112	0	23	0	122	1.19221309002023	0	0	0
249	0	97	102	0	27	0	120	1.1657324610278	1	0	0
250	0	58	143	0	26	0	120	0.788622706895694	1	0	0
251	0	55	131	0	25	0	120	0.778388222912326	1	0	0
252	1	121	110	0	24	0	122	1.17723955097608	1	0	0
253	0	141	116	0	22	0	120	0.879938208032399	1	0	0
254	1	58	128	1	21	0	120	2.00181389600039	0	0	0
255	1	131	108	1	25	0	120	0.774183132103644	0	0	0
256	0	25	131	1	28	0	122	1.34098416601773	0	0	0
257	0	13	74	1	31	0	120	0.868629241012968	1	0	0
258	0	141	114	0	30	0	120	1.00407738797367	1	0	0
259	1	31	146	1	29	0	122	2.80527183494996	1	0	0
260	0	10	40	1	28	0	120	1.21809277508873	1	0	0
261	1	84	91	0	27	0	122	0.862495583016425	1	0	0
262	0	98	63	0	26	0	120	0.965335826040246	1	0	0
263	0	100	150	1	25	0	122	2.71943519299384	0	0	0
264	1	115	5	1	28	0	122	1.06395816302393	1	0	0
265	0	141	122	1	27	0	120	0.994807456969284	1	0	0
266	0	31	140	1	26	0	122	1.79230795800686	0	0	0
267	0	27	69	1	29	0	120	1.6014993559802	1	0	0
268	1	103	142	0	28	0	122	1.61887139303144	1	0	0
269	0	6	48	1	27	0	122	2.31142494198866	0	0	0
270	0	5	75	1	30	0	120	1.15233923494816	1	0	0
271	0	34	135	0	29	0	120	1.04750356194563	1	0	0
272	0	83	148	0	28	0	120	1.16327755502425	1	0	0
273	0	9	74	1	27	0	120	1.81863197498024	1	0	0
274	0	48	32	1	26	0	120	1.21525196300354	1	0	0
275	1	96	36	0	25	0	122	0.635534047964029	1	0	0
276	1	14	45	0	24	0	120	1.2874768699985	0	0	0
277	1	30	123	0	27	0	122	1.04231264698319	1	0	0
278	0	98	3	0	26	0	122	0.794955749996006	0	0	0
279	0	76	100	0	29	0	120	1.28332129097544	1	0	0
280	1	11	4	1	28	0	122	2.60557872103527	1	0	0
281	1	88	94	1	27	0	122	0.579026613966562	1	0	0
282	1	55	135	1	26	0	122	1.83329667302314	1	0	0
283	1	114	138	0	25	0	122	1.26928693498485	1	0	0
284	0	69	43	0	24	0	120	1.05600849492475	1	0	0
285	1	72	65	1	24	0	122	1.73922172002494	1	0	0
286	0	40	47	0	23	0	120	1.29093025496695	1	0	0
287	0	49	97	0	22	0	122	0.869374856934883	0	0	0
288	1	35	93	1	24	0	122	2.26827581494581	1	0	0
289	1	58	48	0	23	0	120	0.970065123983659	0	0	0
290	0	52	15	1	26	0	120	0.836668865988031	1	0	0
291	1	143	83	1	25	0	122	1.31671344197821	1	0	0
292	1	55	26	1	24	0	122	0.845921935979277	1	0	0
293	0	131	142	0	24	0	120	0.697566295973957	1	0	0
294	0	18	126	0	23	0	120	1.65097643702757	1	0	0
295	1	37	131	0	22	0	122	1.4375762360869	1	0	0
296	1	44	19	1	21	0	120	1.40159885608591	0	0	0
297	1	35	138	1	24	0	120	1.21473030711059	0	0	0
298	0	5	138	0	26	0	120	0.847124092048034	1	0	0
299	1	89	150	0	25	0	122	1.15095851197839	1	0	0
300	1	28	12	0	24	0	122	1.15931035601534	1	0	0
