Trial	Gender_Face1	Face1_nb	Face2_nb	Right_left_flip	Nb_Bubbles	Overlap_Target	Response	RT	Accuracy	Simi2Target	Trial_Reward
1	1	30	8	0	66	0	122	3.40980525000487	1	0	0
2	1	68	112	0	62	0	120	0.978990021016216	0	0	0
3	1	89	41	1	75	0	122	0.628423432994168	1	0	0
4	1	48	61	1	71	0	122	1.04897861799691	1	0	0
5	0	102	119	1	67	0	122	1.1480994290032	0	0	0
6	0	137	5	1	79	0	120	0.699347474001115	1	0	0
7	0	1	94	1	75	0	120	0.740464453003369	1	0	0
8	1	127	107	1	72	0	122	0.916135836014291	1	0	0
9	0	126	128	1	68	0	120	2.66124741401291	1	0	0
10	1	100	42	0	65	0	122	5.09566286599147	1	0	0
11	0	48	21	1	61	0	120	3.67388319101883	1	0	0
12	0	87	33	1	58	0	120	1.06766086898278	1	0	0
13	1	50	104	1	54	0	122	5.26169354998274	1	0	0
14	1	41	69	1	51	0	120	1.00849300998379	0	0	0
15	0	122	22	1	61	0	120	4.15781261099619	1	0	0
16	0	58	49	1	58	0	120	0.97190014901571	1	0	0
17	1	1	4	0	55	0	120	1.09059497099952	0	0	0
18	1	125	22	0	64	0	122	1.48460618799436	1	0	0
19	0	51	61	1	61	0	122	1.4149217660015	0	0	0
20	0	142	53	1	71	0	120	0.883154109993484	1	0	0
21	0	91	103	0	68	0	120	2.70102504797978	1	0	0
22	1	101	13	1	65	0	122	0.821897059009643	1	0	0
23	0	47	60	1	62	0	120	0.530576891003875	1	0	0
24	0	122	150	0	59	0	120	0.890264574991306	1	0	0
25	1	139	32	1	57	0	122	0.851801277021877	1	0	0
26	0	124	102	0	54	0	120	0.910978393018013	1	0	0
27	0	30	125	0	51	0	120	0.920373569999356	1	0	0
28	0	47	73	0	48	0	120	1.29656829900341	1	0	0
29	1	136	70	1	46	0	122	1.60988952801563	1	0	0
30	1	105	110	1	43	0	122	2.63090797499171	1	0	0
31	1	140	118	0	41	0	120	0.938137190998532	0	0	0
32	1	10	144	0	48	0	122	1.14680224700714	1	0	0
33	0	81	87	0	46	0	120	1.5463745839952	1	0	0
34	1	109	21	1	43	0	122	11.8580967810121	1	0	0
35	0	133	110	0	41	0	120	2.97245473100338	1	0	0
36	1	99	92	0	38	0	120	1.10579957099981	0	0	0
37	0	95	117	1	45	0	120	0.603957974002697	1	0	0
38	0	10	78	0	43	0	122	0.888675522990525	0	0	0
39	1	118	67	1	50	0	122	0.690587416000199	1	0	0
40	1	140	112	1	48	0	120	0.988417078013299	0	0	0
41	0	53	21	0	55	0	120	1.25803557000472	1	0	0
42	0	22	81	0	52	0	120	0.893289419007488	1	0	0
43	0	110	64	1	50	0	122	1.46293183500529	0	0	0
44	0	12	120	0	57	0	122	0.569237757008523	0	0	0
45	0	42	71	1	63	0	122	2.4876215000113	0	0	0
46	1	70	82	1	70	0	122	0.896821230009664	1	0	0
47	0	142	63	0	68	0	120	4.74687950499356	1	0	0
48	1	8	50	0	66	0	120	0.95444267700077	0	0	0
49	0	93	118	1	72	0	120	0.801196946995333	1	0	0
50	0	77	45	0	70	0	120	0.74221252699499	1	0	0
51	1	19	120	1	68	0	122	2.07729049498448	1	0	0
52	1	22	43	1	66	0	122	2.22327161897556	1	0	0
53	1	149	55	0	64	0	120	0.747356097999727	0	0	0
54	0	106	11	1	70	0	120	1.09952914499445	1	0	0
55	1	23	10	0	68	0	120	0.776991170976544	0	0	0
56	1	45	6	0	74	0	122	2.13447270100005	1	0	0
57	1	103	78	0	72	0	122	0.878591266024159	1	0	0
58	0	63	83	0	70	0	120	1.38507393599139	1	0	0
59	0	129	90	1	68	0	120	2.16623066598549	1	0	0
60	0	10	140	0	66	0	120	1.3736366610101	1	0	0
61	1	11	77	0	64	0	122	0.748078419012018	1	0	0
62	1	91	127	0	62	0	122	0.827195110003231	1	0	0
63	1	47	85	0	61	0	120	5.58384745800868	0	0	0
64	0	44	86	0	66	0	122	4.42124922500807	0	0	0
65	0	142	107	1	71	0	120	0.977275887998985	1	0	0
66	0	52	144	0	69	0	120	0.912054323009215	1	0	0
67	0	47	108	1	68	0	120	1.07319364900468	1	0	0
68	0	17	122	1	66	0	122	1.17614214599598	0	0	0
69	0	57	106	0	71	0	120	0.785182698979042	1	0	0
70	1	114	115	1	69	0	122	1.44619487901218	1	0	0
71	1	86	55	1	68	0	120	4.23380627398728	0	0	0
72	0	121	52	0	73	0	120	1.10958877697703	1	0	0
73	1	88	137	0	71	0	122	0.943181315000402	1	0	0
74	1	10	67	0	69	0	122	0.820105816004798	1	0	0
75	0	67	47	0	68	0	120	1.73931393999374	1	0	0
76	1	48	102	0	66	0	120	1.01939492498059	0	0	0
77	0	14	64	1	71	0	120	1.51890021900181	1	0	0
78	0	35	29	1	69	0	120	0.935910141008208	1	0	0
79	0	35	18	1	68	0	120	6.45581308298279	1	0	0
80	1	71	139	0	66	0	120	1.37812966300407	0	0	0
81	0	60	139	1	71	0	120	0.82918471400626	1	0	0
82	0	101	43	1	69	0	120	0.628399973007618	1	0	0
83	0	73	31	1	68	0	120	1.58440144901397	1	0	0
84	0	43	105	1	66	0	120	0.687263326981338	1	0	0
85	1	71	147	1	65	0	122	1.7606729370018	1	0	0
86	1	40	101	1	63	0	122	1.31967143798829	1	0	0
87	1	51	134	1	62	0	122	0.656115830002818	1	0	0
88	0	71	21	0	60	0	122	1.24318420499912	0	0	0
89	0	17	149	0	65	0	120	1.49206739899819	1	0	0
90	1	83	97	0	63	0	122	0.863805506000062	1	0	0
91	1	81	103	1	62	0	122	4.11449733999325	1	0	0
92	1	106	113	0	60	0	120	0.85072473299806	0	0	0
93	0	15	79	0	64	0	120	0.839114556001732	1	0	0
94	0	37	119	1	63	0	120	1.06702933399356	1	0	0
95	1	20	54	0	62	0	122	0.858478533016751	1	0	0
96	0	125	79	1	60	0	122	7.575862889993	0	0	0
97	1	46	46	0	64	0	120	1.78999359800946	0	0	0
98	1	82	35	1	68	0	122	4.21166788099799	1	0	0
99	1	75	50	1	67	0	122	1.3044220309821	1	0	0
100	0	104	72	1	66	0	120	18.7212746779842	1	0	0
101	0	56	90	0	64	0	120	1.86019901698455	1	0	0
102	1	138	4	1	60	0	122	0.683073558000615	1	0	0
103	0	6	128	1	55	0	120	0.922856141027296	1	0	0
104	0	149	18	0	51	0	120	1.06514710999909	1	0	0
105	0	65	141	0	47	0	120	0.779920647008112	1	0	0
106	1	148	109	0	43	0	120	1.25864466300118	0	0	0
107	1	87	60	0	56	0	122	3.05986143602058	1	0	0
108	0	112	36	0	52	0	120	8.83098094302113	1	0	0
109	1	111	78	1	48	0	122	0.907831871998496	1	0	0
110	0	94	61	1	44	0	122	1.80522486101836	0	0	0
111	0	121	64	0	56	0	120	0.689594169001793	1	0	0
112	1	59	86	1	52	0	122	1.6921337179956	1	0	0
113	0	13	13	1	49	0	120	1.40433449999546	1	0	0
114	1	53	114	1	45	0	120	1.69859308798914	0	0	0
115	1	119	110	1	56	0	120	1.25208253401797	0	0	0
116	1	127	110	0	66	0	120	0.879508932994213	0	0	0
117	1	136	116	0	75	0	120	1.24169159098528	0	0	0
118	1	121	68	0	85	0	122	0.788971864996711	1	0	0
119	0	135	143	0	82	0	120	0.771250918012811	1	0	0
120	0	8	123	1	79	0	120	0.640692996006692	1	0	0
121	1	40	40	0	76	0	122	1.97347361498396	1	0	0
122	0	50	26	0	73	0	120	0.658799785014708	1	0	0
123	1	58	93	1	70	0	122	1.47744020301616	1	0	0
124	1	124	129	1	67	0	120	1.50480095497915	0	0	0
125	1	59	112	1	76	0	120	1.2813504350197	0	0	0
126	1	20	134	0	84	0	120	6.66747529897839	0	0	0
127	0	67	84	0	92	0	120	1.15792632399825	1	0	0
128	1	37	62	0	89	0	120	3.04502573999343	0	0	0
129	0	22	68	1	97	0	122	1.7280478659959	0	0	0
130	1	42	66	1	105	0	122	5.46392453301814	1	0	0
131	1	137	97	0	102	0	122	1.03459141898202	1	0	0
132	0	79	49	0	100	0	120	0.550213709007949	1	0	0
133	1	128	46	0	97	0	122	1.02145333500812	1	0	0
134	1	89	111	0	95	0	122	5.20990480299224	1	0	0
135	0	128	128	0	93	0	122	0.774563340004534	0	0	0
136	1	141	11	1	100	0	122	0.997173109994037	1	0	0
137	0	104	44	1	97	0	122	2.07421973298187	0	0	0
138	0	74	46	0	104	0	120	0.572293183999136	1	0	0
139	0	8	10	0	102	0	120	0.66719364200253	1	0	0
140	1	16	65	1	100	0	122	0.965849019994494	1	0	0
141	0	126	97	0	97	0	120	1.33184021900524	1	0	0
142	1	116	127	1	95	0	122	1.13294224598212	1	0	0
143	0	54	117	1	93	0	122	0.803969668981154	0	0	0
144	0	79	131	1	100	0	120	0.681678977998672	1	0	0
145	0	65	107	1	97	0	120	0.748093560978305	1	0	0
146	0	26	17	1	95	0	120	0.738121797010535	1	0	0
147	0	115	138	1	93	0	122	2.3224902980146	0	0	0
148	0	54	138	1	99	0	120	1.82634587699431	1	0	0
149	1	44	46	1	97	0	120	0.815506621991517	0	0	0
150	0	5	67	0	103	0	120	2.56351411799551	1	0	0
151	1	49	42	1	101	0	122	1.05898493199493	1	0	0
152	1	109	39	1	99	0	122	0.709682440996403	1	0	0
153	1	122	25	0	97	0	122	0.750827955023851	1	0	0
154	1	7	143	1	95	0	122	0.598431474005338	1	0	0
155	0	33	65	1	94	0	122	3.43519498201204	0	0	0
156	0	51	42	0	99	0	120	0.608033967990195	1	0	0
157	1	138	58	0	97	0	122	0.732958921988029	1	0	0
158	0	37	74	0	96	0	120	1.00481327698799	1	0	0
159	1	5	66	1	94	0	122	1.46555689701927	1	0	0
160	0	109	115	1	92	0	120	3.09235571898171	1	0	0
161	1	42	52	0	90	0	122	2.83738082298078	1	0	0
162	1	67	133	0	88	0	122	1.28129414501018	1	0	0
163	1	95	51	1	87	0	122	1.18730751099065	1	0	0
164	1	134	85	0	85	0	122	0.944932654005243	1	0	0
165	1	75	83	1	83	0	122	0.943904667976312	1	0	0
166	1	4	112	0	82	0	120	1.04696077900007	0	0	0
167	1	19	82	1	87	0	122	0.647575615003007	1	0	0
168	0	115	145	1	85	0	122	0.846130444988376	0	0	0
169	1	39	139	0	90	0	120	2.20990245300345	0	0	0
170	0	94	108	1	95	0	120	0.766480321006384	1	0	0
171	0	63	87	1	93	0	120	1.06098772599944	1	0	0
172	0	58	136	0	92	0	120	0.527653974015266	1	0	0
173	1	29	74	1	90	0	120	0.934852281003259	0	0	0
174	1	149	96	0	95	0	120	0.599999919009861	0	0	0
175	1	7	74	1	100	0	122	0.628886015998432	1	0	0
176	1	134	83	0	98	0	122	2.44151679001516	1	0	0
177	0	51	73	0	96	0	120	0.677102015994024	1	0	0
178	0	95	26	1	95	0	120	0.518916197994258	1	0	0
179	1	61	114	1	93	0	120	0.583583024999825	0	0	0
180	0	133	56	1	98	0	120	1.13357033699867	1	0	0
181	0	29	38	1	96	0	120	0.87688527701539	1	0	0
182	0	93	60	0	95	0	120	0.663941957987845	1	0	0
183	0	139	16	1	93	0	120	2.02566839798237	1	0	0
184	0	119	26	0	92	0	120	1.73401568099507	1	0	0
185	0	99	120	0	91	0	120	0.638465059979353	1	0	0
186	0	144	56	1	89	0	120	0.625487777026137	1	0	0
187	0	42	119	0	88	0	120	0.877827303018421	1	0	0
188	0	18	12	1	86	0	120	8.20795196300605	1	0	0
189	0	32	80	0	85	0	120	0.851673839992145	1	0	0
190	0	17	106	0	84	0	120	0.711280327988788	1	0	0
191	0	143	93	1	82	0	120	2.65644419600721	1	0	0
192	1	126	101	1	81	0	122	2.10776993900072	1	0	0
193	0	31	128	0	80	0	120	0.692236882983707	1	0	0
194	0	41	86	0	79	0	120	0.629146550985752	1	0	0
195	0	37	79	1	77	0	120	1.001654666994	1	0	0
196	1	44	42	1	76	0	120	0.774745854985667	0	0	0
197	1	20	29	1	80	0	122	1.46975102601573	1	0	0
198	1	21	137	0	78	0	122	1.22373956200317	1	0	0
199	0	101	75	1	77	0	122	1.36488895400544	0	0	0
200	1	78	82	0	81	0	120	1.13127047201851	0	0	0
201	0	95	88	0	85	0	120	0.802294299006462	1	0	0
202	0	64	69	1	82	0	120	2.78887040901463	1	0	0
203	0	71	73	0	80	0	120	0.67120243399404	1	0	0
204	1	121	105	0	77	0	122	0.83040874399012	1	0	0
205	1	60	141	1	75	0	122	1.23523087901413	1	0	0
206	1	82	78	0	72	0	122	1.03094038198469	1	0	0
207	0	115	43	0	70	0	120	0.994831527990755	1	0	0
208	0	102	91	1	67	0	122	0.96057915900019	0	0	0
209	0	121	130	1	75	0	120	0.718642866995651	1	0	0
210	0	82	102	1	72	0	120	1.05508499298594	1	0	0
211	1	8	17	1	70	0	122	1.33005482100998	1	0	0
212	1	138	23	0	68	0	122	0.930448592000175	1	0	0
213	0	126	42	1	66	0	120	0.810138475993881	1	0	0
214	1	36	10	0	63	0	120	7.51825734597514	0	0	0
215	0	116	126	1	70	0	120	1.03916507502436	1	0	0
216	1	33	30	1	68	0	120	1.87509614901501	0	0	0
217	0	85	79	0	74	0	120	0.610475336987292	1	0	0
218	1	17	91	1	72	0	122	1.92225508202682	1	0	0
219	1	127	38	0	70	0	122	0.809425207989989	1	0	0
220	1	61	83	0	68	0	120	3.71570550199249	0	0	0
221	1	49	114	0	74	0	122	0.990525051020086	1	0	0
222	1	51	75	1	72	0	122	0.773012018005829	1	0	0
223	0	33	58	1	70	0	120	2.57840673002647	1	0	0
224	0	135	107	1	69	0	120	1.19326276000356	1	0	0
225	0	85	85	0	67	0	120	0.631075016979594	1	0	0
226	0	12	119	0	65	0	120	0.858448259008583	1	0	0
227	0	67	27	0	63	0	120	1.13379482500022	1	0	0
228	1	145	134	0	61	0	122	1.31018256099196	1	0	0
229	0	62	119	1	60	0	122	0.766598938003881	0	0	0
230	0	132	57	1	65	0	120	3.79689565100125	1	0	0
231	0	6	118	1	63	0	122	1.65071730400086	0	0	0
232	0	98	28	1	68	0	122	1.39043356000911	0	0	0
233	0	121	106	1	73	0	120	0.724404495995259	1	0	0
234	0	84	26	0	71	0	120	0.67577765302849	1	0	0
235	0	150	94	1	70	0	120	4.90182545798598	1	0	0
236	1	54	15	1	68	0	122	0.891315985005349	1	0	0
237	1	88	142	0	67	0	122	0.648249969992321	1	0	0
238	1	3	101	1	65	0	120	1.09150787000544	0	0	0
239	1	106	139	0	70	0	122	0.725037411000812	1	0	0
240	0	119	32	0	68	0	120	1.19711799599463	1	0	0
241	0	40	60	1	67	0	120	1.86612378698192	1	0	0
242	0	20	50	1	66	0	120	4.06957473800867	1	0	0
243	0	89	96	0	64	0	120	1.43960113800131	1	0	0
244	1	14	69	0	63	0	120	1.05968936500722	0	0	0
245	1	39	9	1	67	0	120	0.911084603023482	0	0	0
246	1	3	147	1	71	0	120	0.884169114026008	0	0	0
247	0	55	116	0	75	0	120	0.753782642015722	1	0	0
248	0	84	103	1	74	0	120	1.46435648298939	1	0	0
249	0	55	70	1	73	0	120	0.651176904008025	1	0	0
250	0	114	70	0	71	0	120	0.845851616002619	1	0	0
251	0	146	20	0	70	0	120	0.665288006013725	1	0	0
252	0	20	98	0	69	0	122	1.42861716798507	0	0	0
253	1	28	144	0	72	0	122	0.776011427980848	1	0	0
254	1	83	62	1	71	0	120	0.902970166993327	0	0	0
255	1	59	129	0	75	0	122	0.927635306987213	1	0	0
256	1	89	85	1	74	0	122	1.42319750299794	1	0	0
257	0	86	116	0	73	0	120	0.85968766498263	1	0	0
258	1	121	128	1	71	0	122	1.11857103300281	1	0	0
259	0	135	137	1	70	0	120	1.50318674999289	1	0	0
260	1	70	93	1	69	0	122	1.60388140901341	1	0	0
261	1	94	23	1	68	0	120	11.9017084740044	0	0	0
262	0	12	123	1	71	0	122	0.647526803979417	0	0	0
263	0	41	7	0	75	0	120	0.722547886020038	1	0	0
264	0	74	114	1	74	0	120	1.39470537900343	1	0	0
265	0	35	140	0	73	0	120	1.28789785999106	1	0	0
266	0	6	75	0	71	0	120	0.873569255025359	1	0	0
267	0	100	79	1	70	0	120	0.667034513986437	1	0	0
268	1	59	55	0	69	0	120	2.07046829798492	0	0	0
269	0	105	19	0	72	0	120	0.569048316974659	1	0	0
270	0	18	54	1	71	0	122	0.67171598598361	0	0	0
271	0	46	47	0	75	0	120	0.641009009006666	1	0	0
272	0	85	111	0	73	0	120	0.869737601984525	1	0	0
273	1	128	48	1	72	0	122	1.59117664699443	1	0	0
274	1	136	81	0	71	0	122	0.557162026001606	1	0	0
275	0	106	67	1	70	0	120	1.90889229302411	1	0	0
276	0	101	65	1	69	0	120	0.644081406993791	1	0	0
277	1	59	55	1	68	0	122	2.5923217489908	1	0	0
278	1	75	23	0	67	0	122	0.669872832018882	1	0	0
279	0	41	26	1	67	0	120	0.696329363010591	1	0	0
280	1	27	119	0	66	0	122	0.937878167023882	1	0	0
281	0	102	87	1	65	0	122	12.5288658379868	0	0	0
282	0	92	45	0	68	0	120	0.681511177011998	1	0	0
283	0	143	116	0	67	0	122	1.21143491400289	0	0	0
284	1	35	23	1	69	0	120	0.823455678997561	0	0	0
285	0	82	81	1	72	0	120	0.657553104974795	1	0	0
286	1	33	82	1	71	0	122	1.47884430797421	1	0	0
287	0	24	100	1	70	0	120	0.713216372998431	1	0	0
288	1	59	20	0	69	0	122	1.00974629700067	1	0	0
289	1	42	125	0	68	0	122	0.797923418023856	1	0	0
290	1	148	21	1	68	0	122	0.699638949998189	1	0	0
291	1	13	52	0	67	0	120	1.06889486100408	0	0	0
292	1	92	123	0	69	0	122	0.670755258994177	1	0	0
293	0	122	99	0	68	0	120	1.33765451799263	1	0	0
294	0	30	84	0	68	0	120	0.696631288010394	1	0	0
295	0	43	33	0	67	0	120	0.847714603994973	1	0	0
296	1	99	88	1	66	0	122	0.806234277988551	1	0	0
297	1	43	47	0	65	0	122	0.651001633988926	1	0	0
298	1	96	71	1	64	0	122	0.79880692900042	1	0	0
299	0	34	98	1	64	0	120	0.580128884001169	1	0	0
300	0	118	107	1	63	0	122	2.68924727098783	0	0	0
301	0	111	39	1	65	0	120	1.40822967299027	1	0	0
302	0	54	45	0	62	0	120	0.65083409298677	1	0	0
303	1	94	95	1	60	0	120	1.98654884297866	0	0	0
304	0	60	2	0	68	0	120	0.654377889994066	1	0	0
305	1	82	7	0	65	0	122	0.905994223983726	1	0	0
306	1	28	61	1	63	0	122	0.71431721697445	1	0	0
307	0	100	129	1	61	0	120	2.53149446900352	1	0	0
308	0	32	139	1	58	0	122	1.98703080700943	0	0	0
309	0	72	150	0	65	0	120	0.816589285997907	1	0	0
310	1	51	73	1	63	0	122	0.909171356994193	1	0	0
311	1	79	61	0	61	0	122	1.813568758982	1	0	0
312	0	150	51	0	59	0	120	1.26645696299965	1	0	0
313	0	110	44	1	57	0	120	3.34064391400898	1	0	0
314	0	39	139	1	55	0	120	0.772696984990034	1	0	0
315	0	72	10	1	53	0	120	0.859101882000687	1	0	0
316	1	141	63	0	51	0	122	1.26939733099425	1	0	0
317	0	122	117	0	49	0	120	0.6327795899997	1	0	0
318	1	142	38	1	47	0	120	0.763950591004686	0	0	0
319	0	123	144	1	53	0	120	0.75535130299977	1	0	0
320	0	13	9	0	51	0	122	10.513591135008	0	0	0
321	0	26	27	0	57	0	120	0.562454082013573	1	0	0
322	1	32	145	1	55	0	120	0.776885141007369	0	0	0
323	0	17	89	0	60	0	120	1.10363206197508	1	0	0
324	0	9	125	1	59	0	120	0.92856093600858	1	0	0
325	1	77	123	1	57	0	122	0.984571023989702	1	0	0
326	1	6	95	1	55	0	122	1.47797477699351	1	0	0
327	1	17	9	0	54	0	122	0.904489902983187	1	0	0
328	0	146	3	1	52	0	120	1.03318316600053	1	0	0
329	0	42	62	1	50	0	120	0.613695061008912	1	0	0
330	0	130	31	1	49	0	120	0.786155031004455	1	0	0
331	0	43	105	0	47	0	120	0.792101814993657	1	0	0
332	1	70	3	1	46	0	120	1.310513170989	0	0	0
333	0	2	87	1	50	0	120	0.950792029005243	1	0	0
334	0	33	17	0	49	0	120	3.27816825799528	1	0	0
335	1	133	82	0	47	0	120	2.584396293998	0	0	0
336	0	77	69	0	52	0	120	0.870427058980567	1	0	0
337	1	111	82	1	50	0	122	0.705260599002941	1	0	0
338	0	23	57	0	49	0	120	2.31396016001236	1	0	0
339	0	37	146	1	48	0	120	0.755326777027221	1	0	0
340	1	69	116	1	46	0	122	0.930036275996827	1	0	0
341	1	10	88	0	45	0	122	3.68985562797752	1	0	0
342	1	49	10	0	43	0	122	0.762799071992049	1	0	0
343	1	104	94	0	42	0	120	2.2264846249891	0	0	0
344	0	75	39	1	46	0	120	0.67838586398284	1	0	0
345	1	20	147	0	45	0	120	15.9284194300126	0	0	0
346	1	63	22	1	49	0	122	5.53797970499727	1	0	0
347	0	112	88	0	48	0	120	1.46463226800552	1	0	0
348	1	95	29	0	46	0	122	3.56076351698721	1	0	0
349	0	130	121	0	45	0	120	1.65865569902235	1	0	0
350	1	6	78	0	44	0	122	2.51021238500834	1	0	0
351	0	34	125	1	43	0	120	0.511470517987618	1	0	0
352	0	60	117	0	41	0	120	0.736079899012111	1	0	0
353	0	9	136	1	40	0	120	4.95986608101521	1	0	0
354	1	26	18	1	39	0	122	7.29482338798698	1	0	0
355	0	131	84	0	38	0	120	2.24033220499405	1	0	0
356	0	120	90	1	37	0	120	1.04323615998146	1	0	0
357	0	53	57	0	36	0	120	0.62334854202345	1	0	0
358	1	12	21	0	35	0	122	1.01156193000497	1	0	0
359	1	150	84	0	33	0	122	0.920059600990498	1	0	0
360	0	109	39	1	32	0	120	1.10493930999655	1	0	0
361	1	73	89	1	31	0	122	1.07394191101776	1	0	0
362	0	33	103	0	30	0	120	0.65984183200635	1	0	0
363	0	74	72	1	29	0	120	0.702897367009427	1	0	0
364	1	134	22	0	28	0	122	1.54332591299317	1	0	0
365	1	76	143	0	27	0	122	0.904008828016231	1	0	0
366	1	3	74	0	26	0	122	0.969021808996331	1	0	0
367	0	40	3	0	25	0	120	0.919669260998489	1	0	0
368	0	90	68	0	24	0	120	1.31914886800223	1	0	0
369	1	19	48	1	24	0	122	0.607988542004023	1	0	0
370	1	57	101	0	23	0	120	1.34134031602298	0	0	0
371	1	33	64	1	25	0	122	15.2274523359956	1	0	0
372	1	53	80	1	25	0	120	1.24868362699635	0	0	0
373	0	150	64	0	27	0	122	1.58858642002451	0	0	0
374	1	50	69	0	30	0	120	0.689719507005066	0	0	0
375	1	140	11	0	33	0	122	0.874770670983708	1	0	0
376	0	35	78	0	32	0	120	0.669708542001899	1	0	0
377	1	77	81	1	31	0	122	1.10220878399559	1	0	0
378	0	81	129	0	30	0	120	0.729258039995329	1	0	0
379	1	97	44	0	29	0	122	1.48065145799774	1	0	0
380	0	111	115	1	28	0	120	0.850943372992333	1	0	0
381	1	135	35	1	27	0	120	1.96641934799845	0	0	0
382	0	112	18	1	30	0	122	1.30111334400135	0	0	0
383	0	73	74	0	32	0	122	1.15048518701224	0	0	0
384	0	142	70	0	35	0	122	1.02959818099043	0	0	0
385	1	88	33	0	38	0	122	0.713680820015725	1	0	0
386	0	111	140	1	37	0	122	2.25757772198995	0	0	0
387	0	39	91	1	39	0	120	0.605072797014145	1	0	0
388	1	127	109	0	38	0	122	0.769775016990025	1	0	0
389	1	150	126	1	38	0	122	0.760780205979245	1	0	0
390	1	60	56	1	37	0	122	0.879015724989586	1	0	0
391	0	32	30	1	36	0	122	1.74921150499722	0	0	0
392	0	119	123	1	38	0	122	3.47317718400154	0	0	0
393	0	98	116	1	41	0	120	0.778617085976293	1	0	0
394	0	47	19	0	40	0	120	1.14443454999127	1	0	0
395	0	39	16	1	39	0	120	1.79275597099331	1	0	0
396	1	99	21	1	38	0	120	0.918035228998633	0	0	0
397	1	65	117	1	41	0	120	1.69526813001721	0	0	0
398	1	106	59	1	43	0	122	3.01630535902223	1	0	0
399	0	29	83	0	42	0	120	0.666676938009914	1	0	0
400	0	6	142	1	42	0	120	0.902536725014215	1	0	0
401	0	33	122	1	41	0	120	1.22317817801377	1	0	0
402	1	104	130	0	38	0	120	3.1214096719923	0	0	0
403	0	87	119	1	46	0	120	2.63805005000904	1	0	0
404	1	11	26	1	44	0	122	0.816200564004248	1	0	0
405	1	52	90	1	42	0	122	1.87635747899185	1	0	0
406	1	147	80	0	40	0	122	4.27780910299043	1	0	0
407	1	42	29	0	37	0	120	1.17662470601499	0	0	0
408	1	15	93	1	44	0	120	1.42205812199973	0	0	0
409	0	43	117	0	51	0	120	0.707247429003473	1	0	0
410	0	91	141	0	49	0	122	3.2281245389895	0	0	0
411	1	28	124	1	55	0	122	1.23954442000831	1	0	0
412	1	150	83	1	53	0	122	3.18786691199057	1	0	0
413	1	75	45	1	51	0	122	0.912569926003926	1	0	0
414	1	38	37	1	49	0	120	1.09797691198764	0	0	0
415	0	86	60	0	54	0	120	1.07258802399156	1	0	0
416	0	115	16	1	53	0	120	6.28537304300698	1	0	0
417	1	2	34	1	51	0	122	1.47085791401332	1	0	0
418	0	29	32	0	49	0	120	1.23415460000979	1	0	0
419	1	25	12	0	47	0	120	3.18228904399439	0	0	0
420	1	69	7	0	53	0	122	2.5242082689947	1	0	0
421	0	78	27	1	51	0	120	0.812350555002922	1	0	0
422	1	141	6	0	49	0	120	2.05650142199011	0	0	0
423	0	86	121	1	54	0	120	0.580124631989747	1	0	0
424	1	26	8	0	52	0	122	0.641173543001059	1	0	0
425	0	17	25	0	51	0	120	1.80465919498238	1	0	0
426	0	88	9	0	49	0	120	0.73064348497428	1	0	0
427	0	6	114	1	48	0	120	0.650316504004877	1	0	0
428	1	86	80	0	46	0	120	1.49339709401829	0	0	0
429	1	48	42	1	51	0	122	0.798780732991872	1	0	0
430	0	51	91	0	49	0	120	0.732921329996316	1	0	0
431	0	7	127	1	48	0	120	1.76474515697919	1	0	0
432	0	25	59	1	47	0	120	1.17531304998556	1	0	0
433	1	20	123	1	45	0	122	0.793063095014077	1	0	0
434	1	47	86	0	44	0	120	7.46800780398189	0	0	0
435	0	111	39	1	48	0	120	1.76088735400117	1	0	0
436	0	135	51	1	46	0	120	1.07152804601355	1	0	0
437	1	150	42	1	45	0	122	0.945960772020044	1	0	0
438	1	103	8	1	44	0	122	14.1778623680002	1	0	0
439	0	39	17	1	42	0	120	1.05554929800564	1	0	0
440	1	8	26	0	41	0	120	1.14694724499714	0	0	0
441	0	85	16	1	45	0	120	0.753809552988969	1	0	0
442	0	105	52	0	44	0	120	3.20986938502756	1	0	0
443	0	52	79	1	43	0	120	0.997687150986167	1	0	0
444	0	31	26	1	41	0	120	0.755129256984219	1	0	0
445	0	1	41	0	40	0	120	1.18613626598381	1	0	0
446	1	75	134	1	39	0	120	0.703771838976536	0	0	0
447	1	50	62	1	43	0	122	2.83340447099181	1	0	0
448	0	120	40	1	41	0	120	0.788734162983019	1	0	0
449	0	136	74	1	40	0	120	0.673444145009853	1	0	0
450	0	78	36	1	39	0	120	1.42098594500567	1	0	0
451	0	30	7	1	38	0	120	1.2974937010149	1	0	0
452	0	141	104	0	37	0	120	2.56287247300497	1	0	0
453	1	35	11	0	36	0	120	0.936275334999664	0	0	0
454	1	54	46	1	39	0	122	0.977114281005925	1	0	0
455	0	130	75	1	38	0	120	1.00787617199239	1	0	0
456	0	91	100	0	37	0	120	0.71575020000455	1	0	0
457	0	82	103	1	36	0	120	3.15410047202022	1	0	0
458	1	39	145	1	35	0	122	0.867876128002536	1	0	0
459	1	21	126	1	34	0	122	6.26157557600527	1	0	0
460	1	130	111	0	33	0	120	16.9132601120218	0	0	0
461	1	57	95	0	36	0	122	1.77766637600143	1	0	0
462	1	77	130	0	35	0	122	2.20881759098847	1	0	0
463	1	44	104	1	34	0	120	0.813531708001392	0	0	0
464	0	66	66	0	37	0	120	12.8018992750149	1	0	0
465	0	148	4	1	36	0	120	8.06347537599504	1	0	0
466	1	11	45	1	35	0	120	1.6417265580094	0	0	0
467	1	86	38	0	38	0	120	2.77427237798111	0	0	0
468	0	142	83	0	41	0	120	13.2204598259996	1	0	0
469	0	4	83	1	40	0	120	0.696462333027739	1	0	0
470	1	125	136	0	39	0	120	1.31392720001168	0	0	0
471	0	12	99	0	42	0	120	0.6502349319926	1	0	0
472	0	80	57	1	41	0	120	0.637298436980927	1	0	0
473	1	133	87	1	40	0	120	1.52959474301315	0	0	0
474	0	52	139	1	43	0	120	2.15368003598996	1	0	0
475	1	69	57	1	42	0	120	1.04765144499834	0	0	0
476	1	138	1	1	44	0	120	2.13099771199632	0	0	0
477	0	81	100	1	47	0	120	0.747504511004081	1	0	0
478	0	123	66	0	46	0	122	1.08312148100231	0	0	0
479	1	85	52	0	49	0	120	1.3331928869884	0	0	0
480	0	132	101	1	52	0	120	1.66091750300257	1	0	0
481	0	96	18	0	51	0	120	0.568185667012585	1	0	0
482	0	34	92	0	50	0	120	0.693823626002995	1	0	0
483	1	72	111	1	49	0	122	0.991338207997615	1	0	0
484	0	13	76	0	48	0	120	0.997141704981914	1	0	0
485	0	83	97	1	47	0	122	0.777851000020746	0	0	0
486	1	37	115	1	50	0	122	3.6243107119808	1	0	0
487	0	149	128	1	49	0	122	0.789072326995665	0	0	0
488	1	45	94	0	52	0	122	0.817769550980302	1	0	0
489	0	7	15	1	51	0	120	0.598670502018649	1	0	0
490	0	75	124	1	50	0	120	1.09223949702573	1	0	0
491	0	40	142	1	49	0	120	0.900820893992204	1	0	0
492	0	3	96	0	48	0	120	0.654424569976982	1	0	0
493	1	68	113	0	47	0	122	1.20981363501051	1	0	0
494	0	49	67	1	46	0	120	1.08643817101256	1	0	0
495	1	99	136	0	46	0	120	3.58461954601808	0	0	0
496	0	15	10	0	48	0	120	1.22996939401492	1	0	0
497	1	107	98	1	47	0	122	0.71354702298413	1	0	0
498	0	21	146	0	47	0	120	0.715179043007083	1	0	0
499	1	14	43	1	46	0	122	2.5162441279972	1	0	0
500	1	45	128	0	45	0	122	0.556971084995894	1	0	0
