Trial	Gender_Face1	Face1_nb	Face2_nb	Right_left_flip	Nb_Bubbles	Overlap_Target	Response	RT	Accuracy	Simi2Target	Trial_Reward
1	1	19	19	0	59	0	120	0.617792052013101	1	0	0
2	1	108	137	0	56	0	120	0.62945632301853	1	0	0
3	0	75	97	1	54	0	122	0.675636357016629	1	0	0
4	0	79	97	0	51	0	122	0.714963731006719	1	0	0
5	0	44	11	1	49	0	120	0.745148443995276	0	0	0
6	0	29	22	0	56	0	122	0.67377078597201	1	0	0
7	1	14	85	1	54	0	120	0.662008661980508	1	0	0
8	1	105	83	0	52	0	120	0.737361934006913	1	0	0
9	1	44	27	0	50	0	122	0.746086251980159	0	0	0
10	1	94	37	1	56	0	120	1.12984002497979	1	0	0
11	1	27	95	1	54	0	120	0.797301654005423	1	0	0
12	0	112	109	0	52	0	122	0.719631454994669	1	0	0
13	1	16	56	1	50	0	122	0.80035949498415	0	0	0
14	0	80	60	0	56	0	122	0.941630217974307	1	0	0
15	0	24	129	1	54	0	122	0.798207001003902	1	0	0
16	0	117	7	0	52	0	122	1.29169004500727	1	0	0
17	1	91	61	1	50	0	120	0.701001528999768	1	0	0
18	1	55	48	0	48	0	122	1.1822679489851	0	0	0
19	1	39	102	1	54	0	120	0.949535028019454	1	0	0
20	0	36	125	1	52	0	122	0.964843593013939	1	0	0
21	0	87	66	0	50	0	122	1.00329195297672	1	0	0
22	1	87	100	0	49	0	120	0.81729159198585	1	0	0
23	1	69	78	0	47	0	122	1.06907660601428	0	0	0
24	1	47	51	0	52	0	120	0.768284496996785	1	0	0
25	1	114	19	1	50	0	120	1.55923832498956	1	0	0
26	1	135	92	1	49	0	120	1.49336593298358	1	0	0
27	0	142	7	0	47	0	120	0.808040194009664	0	0	0
28	0	120	89	0	52	0	122	1.40414954902371	1	0	0
29	1	17	120	0	50	0	120	0.849754165014019	1	0	0
30	1	6	147	0	49	0	120	1.35597622400383	1	0	0
31	1	64	47	0	47	0	120	1.58023480101838	1	0	0
32	1	79	93	1	46	0	120	1.33882622901001	1	0	0
33	0	77	30	0	44	0	122	1.00302160298452	1	0	0
34	1	41	66	1	43	0	122	1.0558484570065	0	0	0
35	1	50	16	1	47	0	120	1.12371297099162	1	0	0
36	0	3	38	1	46	0	122	0.988584369013552	1	0	0
37	1	135	78	1	44	0	122	1.32976273301756	0	0	0
38	0	39	107	0	48	0	122	1.37041859401506	1	0	0
39	1	61	25	1	47	0	122	1.21709364900016	0	0	0
40	0	56	119	1	51	0	122	1.74140070498106	1	0	0
41	0	21	29	0	50	0	122	1.62171206000494	1	0	0
42	0	77	147	1	49	0	122	1.09019158099545	1	0	0
43	0	111	37	0	47	0	122	1.47612430001027	1	0	0
44	0	106	55	0	46	0	122	1.05084318801528	1	0	0
45	0	34	100	1	45	0	122	1.35416937002447	1	0	0
46	0	31	45	0	43	0	122	1.10535638601868	1	0	0
47	1	52	34	0	42	0	122	1.30677617399488	0	0	0
48	1	25	115	0	46	0	120	1.00297730599414	1	0	0
49	0	21	17	1	45	0	122	1.04909796599532	1	0	0
50	1	17	4	0	43	0	120	0.876710678974632	1	0	0
51	0	4	126	1	42	0	122	1.06802803199389	1	0	0
52	0	76	148	1	41	0	122	1.24176734301727	1	0	0
53	1	111	92	0	40	0	120	0.932686077023391	1	0	0
54	0	109	87	0	39	0	122	1.03796013101237	1	0	0
55	0	95	53	1	37	0	120	0.997809291002341	0	0	0
56	0	86	116	1	41	0	120	0.974204174010083	0	0	0
57	1	27	26	1	44	0	120	1.14888075200724	1	0	0
58	1	147	23	1	43	0	120	1.03683306399034	1	0	0
59	1	77	22	1	42	0	120	0.936706756008789	1	0	0
60	1	149	83	0	41	0	120	1.00741757798824	1	0	0
61	0	118	121	1	40	0	122	0.860933511023177	1	0	0
62	1	128	98	1	39	0	120	1.25704692400177	1	0	0
63	1	1	88	0	38	0	120	0.739497254020534	1	0	0
64	0	4	115	1	37	0	122	0.923930263990769	1	0	0
65	0	32	107	1	36	0	122	1.0682132760121	1	0	0
66	0	97	90	0	35	0	120	0.871048672997858	0	0	0
67	1	55	125	0	38	0	122	1.27366069998243	0	0	0
68	1	132	98	1	41	0	122	1.1486842299928	0	0	0
69	0	32	26	1	44	0	122	1.09979285299778	1	0	0
70	0	39	142	1	43	0	122	1.26899242799846	1	0	0
71	1	149	77	0	42	0	120	0.95144781601266	1	0	0
72	1	48	110	0	41	0	120	0.974813307024306	1	0	0
73	0	93	51	1	40	0	122	0.852925085986499	1	0	0
74	1	65	149	0	39	0	120	0.976601189002395	1	0	0
75	1	99	131	1	38	0	122	0.942335500993067	0	0	0
76	0	107	116	0	41	0	120	1.59015246701892	0	0	0
77	1	30	142	0	43	0	120	0.740024988015648	1	0	0
78	0	131	91	1	42	0	122	0.688931990996934	1	0	0
79	0	90	100	0	42	0	120	0.81749288001447	0	0	0
80	0	106	89	0	44	0	120	0.813574939995306	0	0	0
81	0	42	52	1	47	0	122	1.08235500397859	1	0	0
82	0	56	138	0	46	0	122	0.692594657011796	1	0	0
83	0	138	2	1	45	0	122	0.749872181011597	1	0	0
84	0	37	82	1	44	0	122	0.949453649984207	1	0	0
85	1	144	38	1	43	0	122	0.685312490997603	0	0	0
86	0	149	78	1	46	0	122	0.859469582006568	1	0	0
87	1	43	28	0	45	0	120	1.03331035701558	1	0	0
88	0	32	139	0	44	0	122	1.22926687900326	1	0	0
89	0	75	126	1	43	0	122	0.817421132000163	1	0	0
90	1	117	33	1	42	0	122	0.989958298014244	0	0	0
91	1	144	35	1	45	0	122	0.892169614991872	0	0	0
92	1	143	5	1	48	0	120	0.694444483000552	1	0	0
93	1	97	90	0	47	0	120	1.08821913899737	1	0	0
94	0	115	21	1	46	0	122	0.842167086986592	1	0	0
95	0	67	42	0	45	0	122	0.876862766977865	1	0	0
96	1	88	147	0	44	0	120	1.16521019898937	1	0	0
97	0	59	21	1	43	0	122	0.862181863019941	1	0	0
98	0	21	80	0	43	0	122	1.04905821700231	1	0	0
99	0	77	47	1	42	0	120	1.62176976900082	0	0	0
100	0	117	70	1	44	0	122	0.689770822995342	1	0	0
101	1	127	74	0	43	0	122	0.636572249000892	0	0	0
102	1	107	104	0	51	0	120	0.591437449009391	1	0	0
103	1	95	58	0	48	0	120	0.713533607020508	1	0	0
104	0	12	138	1	46	0	122	0.844624788995134	1	0	0
105	0	65	23	1	44	0	122	0.818186390999472	1	0	0
106	0	109	55	1	42	0	122	0.813600630004657	1	0	0
107	1	60	30	0	39	0	120	0.7861174029822	1	0	0
108	1	132	39	1	37	0	120	0.743884387018625	1	0	0
109	0	121	2	0	35	0	122	0.799795380007708	1	0	0
110	0	22	5	0	33	0	122	0.853579452988924	1	0	0
111	1	43	29	0	30	0	120	1.15261417397414	1	0	0
112	0	124	66	0	28	0	122	0.799832644988783	1	0	0
113	0	132	95	1	26	0	122	0.877216617023805	1	0	0
114	1	27	98	1	24	0	120	0.87995578700793	1	0	0
115	1	7	39	0	22	0	120	0.729239038977539	1	0	0
116	1	74	115	0	20	0	120	1.17774406500394	1	0	0
117	0	1	57	0	17	0	120	1.32065229900763	0	0	0
118	1	118	66	0	24	0	122	0.889024838019395	0	0	0
119	1	30	83	1	30	0	120	0.851272231986513	1	0	0
120	1	124	120	0	28	0	120	0.766282647993648	1	0	0
121	1	141	119	0	26	0	122	0.797986210993258	0	0	0
122	0	13	5	1	32	0	120	0.723649397987174	0	0	0
123	0	43	91	1	37	0	122	0.748856170015642	1	0	0
124	1	8	27	1	36	0	122	0.676062359008938	0	0	0
125	0	143	26	1	41	0	122	0.822895657009212	1	0	0
126	0	7	144	1	39	0	122	0.731152162014041	1	0	0
127	1	140	59	1	38	0	120	0.739487224986078	1	0	0
128	0	55	64	1	36	0	122	1.00388033501804	1	0	0
129	0	9	122	0	34	0	122	0.952936159999808	1	0	0
130	0	99	2	0	33	0	122	0.760377819999121	1	0	0
131	0	14	97	1	31	0	120	0.679292455024552	0	0	0
132	1	109	99	1	36	0	120	1.00949466900784	1	0	0
133	1	116	56	1	34	0	120	0.702408576995367	1	0	0
134	1	126	94	0	33	0	122	0.775408752990188	0	0	0
135	0	113	22	0	37	0	120	0.654011840990279	0	0	0
136	1	68	33	0	42	0	120	1.28612791097839	1	0	0
137	1	65	23	0	40	0	122	0.691406062018359	0	0	0
138	1	95	129	0	45	0	122	0.780261094012531	0	0	0
139	0	143	12	0	49	0	122	1.20320734599954	1	0	0
140	1	109	137	0	48	0	120	1.28848570497939	1	0	0
141	0	98	148	0	46	0	120	1.30619586899411	0	0	0
142	0	102	80	0	51	0	120	2.53940245200647	0	0	0
143	1	77	134	1	55	0	120	1.25174395900103	1	0	0
144	0	149	53	0	53	0	122	0.702675205015112	1	0	0
145	0	6	135	0	52	0	122	1.00833143599448	1	0	0
146	1	57	67	1	51	0	120	0.873811158002354	1	0	0
147	0	6	58	1	49	0	122	0.928076910990058	1	0	0
148	1	121	45	1	48	0	120	0.96798410100746	1	0	0
149	1	27	28	1	47	0	120	0.910536620009225	1	0	0
150	0	34	79	0	46	0	122	0.96662994500366	1	0	0
151	0	134	125	1	44	0	122	0.789706766023301	1	0	0
152	1	11	58	0	43	0	122	0.931454223988112	0	0	0
153	0	133	16	1	47	0	122	1.11634884099476	1	0	0
154	0	37	29	1	46	0	122	1.01342798600672	1	0	0
155	1	84	47	1	44	0	120	0.810674484004267	1	0	0
156	0	41	122	0	43	0	122	1.32752375901327	1	0	0
157	1	14	142	1	42	0	122	0.959656432009069	0	0	0
158	0	50	71	1	46	0	122	0.863074648019392	1	0	0
159	1	139	83	0	44	0	120	0.794001396017848	1	0	0
160	1	87	93	0	43	0	120	0.920330733002629	1	0	0
161	0	107	48	0	42	0	122	1.54437922200304	1	0	0
162	0	62	129	0	41	0	122	0.975771399011137	1	0	0
163	1	147	125	0	40	0	122	0.934541387017816	0	0	0
164	1	121	70	0	43	0	122	0.918024479004089	0	0	0
165	1	33	52	0	46	0	122	0.950167652015807	0	0	0
166	1	44	11	0	50	0	122	0.870520730997669	0	0	0
167	1	97	131	1	53	0	120	0.913187736005057	1	0	0
168	1	128	104	0	52	0	120	0.961742077022791	1	0	0
169	1	16	47	1	51	0	122	0.92162969999481	0	0	0
170	1	112	69	0	54	0	120	0.91391144899535	1	0	0
171	0	7	75	1	53	0	122	1.03494354800205	1	0	0
172	1	96	77	1	52	0	122	0.942164670006605	0	0	0
173	1	12	9	1	55	0	120	0.877702489990043	1	0	0
174	1	35	63	1	54	0	120	0.78889587597223	1	0	0
175	0	149	74	0	53	0	122	0.802943048009183	1	0	0
176	1	86	11	0	52	0	122	0.667079967010068	0	0	0
177	0	119	67	1	55	0	122	0.853826666017994	1	0	0
178	0	68	23	0	54	0	122	1.01737593801226	1	0	0
179	0	137	40	0	53	0	122	0.795511094998801	1	0	0
180	1	93	149	1	52	0	122	0.844437531981384	0	0	0
181	0	93	26	0	55	0	120	1.06376174898469	0	0	0
182	0	16	101	0	58	0	122	0.79519112201524	1	0	0
183	1	101	128	0	57	0	122	0.872467523004161	0	0	0
184	1	136	86	0	60	0	122	0.874981292989105	0	0	0
185	0	88	116	1	63	0	122	1.23736841598293	1	0	0
186	0	118	118	0	62	0	122	1.16146998599288	1	0	0
187	1	51	39	0	61	0	120	1.73624928097706	1	0	0
188	1	9	92	0	60	0	120	1.0235425090068	1	0	0
189	1	145	119	1	59	0	120	0.612016568018589	1	0	0
190	0	141	114	1	58	0	122	0.993541767005809	1	0	0
191	1	143	26	0	57	0	122	0.718946419015992	0	0	0
192	0	88	73	0	60	0	122	0.959778958989773	1	0	0
193	1	90	4	1	59	0	122	0.767110044020228	0	0	0
194	0	22	6	1	61	0	120	1.061206311977	0	0	0
195	0	111	110	0	64	0	122	0.752225854987046	1	0	0
196	1	57	146	0	63	0	122	0.743337318999693	0	0	0
197	1	16	68	1	66	0	122	0.887688866001554	0	0	0
198	0	112	16	1	68	0	122	0.698572588997195	1	0	0
199	0	95	54	0	67	0	120	2.87457840700517	0	0	0
200	0	91	87	1	70	0	122	1.10056112598977	1	0	0
201	1	114	96	0	69	0	122	2.35623699598364	0	0	0
202	0	20	35	0	77	0	120	3.17097442899831	0	0	0
203	0	85	86	1	84	0	122	2.39731480900082	1	0	0
204	1	4	114	0	81	0	120	2.03746695799055	1	0	0
205	1	7	33	0	79	0	120	1.23283753101714	1	0	0
206	1	8	142	1	77	0	120	1.04540633500437	1	0	0
207	0	13	49	1	75	0	122	2.68069619699963	1	0	0
208	1	29	104	1	73	0	120	1.56293664299301	1	0	0
209	0	69	78	1	71	0	122	0.714213148981798	1	0	0
210	0	74	119	1	69	0	122	1.46628905099351	1	0	0
211	1	140	85	0	67	0	120	1.15759931699722	1	0	0
212	0	40	10	1	65	0	122	1.90860437601805	1	0	0
213	0	48	9	0	63	0	122	2.14881441899342	1	0	0
214	0	39	125	1	61	0	120	3.58798787300475	0	0	0
215	0	100	58	1	67	0	120	1.93804991900106	0	0	0
216	1	122	116	0	73	0	120	2.17835166899022	1	0	0
217	1	139	106	1	71	0	120	1.68092121399241	1	0	0
218	0	107	118	0	69	0	120	2.3789026059967	0	0	0
219	1	19	122	1	75	0	120	1.20887229999062	1	0	0
220	1	48	112	0	73	0	122	4.43042826501187	0	0	0
221	1	32	32	1	78	0	120	1.48270894898451	1	0	0
222	1	6	4	1	77	0	120	1.96446857697447	1	0	0
223	1	135	65	0	75	0	120	2.37159027002053	1	0	0
224	0	90	149	1	73	0	122	1.31450404101633	1	0	0
225	0	111	56	0	72	0	122	1.41134513699217	1	0	0
226	0	84	80	1	70	0	122	1.41670226599672	1	0	0
227	0	44	68	1	69	0	122	1.48541707999539	1	0	0
228	0	139	14	0	67	0	122	2.00756400599494	1	0	0
229	1	89	125	1	66	0	120	1.19544739997946	1	0	0
230	1	16	26	1	64	0	122	1.08196554501774	0	0	0
231	1	9	11	1	69	0	122	1.34723597299308	0	0	0
232	1	54	54	1	73	0	122	1.4355710419768	0	0	0
233	0	36	85	1	77	0	122	1.16755334899062	1	0	0
234	0	137	120	0	76	0	122	1.59776156398584	1	0	0
235	0	136	111	1	75	0	122	1.27593488799175	1	0	0
236	0	23	12	0	73	0	122	1.12584340397734	1	0	0
237	1	51	104	0	72	0	120	1.03777316899505	1	0	0
238	1	140	56	0	71	0	120	1.15432226200937	1	0	0
239	0	7	67	0	69	0	122	1.26575656200293	1	0	0
240	1	145	11	0	68	0	120	0.760693843010813	1	0	0
241	0	40	130	1	67	0	122	0.76374454802135	1	0	0
242	1	59	100	1	65	0	122	2.15546887801611	0	0	0
243	1	30	21	1	69	0	122	1.08219147700584	0	0	0
244	1	115	89	0	73	0	120	0.907912860013312	1	0	0
245	1	68	119	1	72	0	122	0.894045783992624	0	0	0
246	1	96	143	0	75	0	122	0.999528061976889	0	0	0
247	1	14	24	0	79	0	122	1.23695388500346	0	0	0
248	0	2	84	0	83	0	122	0.713056248991052	1	0	0
249	0	67	99	0	81	0	122	1.57900424397667	1	0	0
250	0	17	106	0	80	0	122	1.1768606089754	1	0	0
251	1	68	69	0	79	0	120	1.05580364901107	1	0	0
252	1	125	102	1	78	0	122	2.8827843379986	0	0	0
253	1	92	100	1	82	0	120	0.850412090017926	1	0	0
254	0	9	139	1	80	0	120	6.28866306500277	0	0	0
255	1	53	14	1	84	0	120	1.08990244602319	1	0	0
256	0	76	96	1	83	0	122	1.37149418599438	1	0	0
257	1	68	56	0	82	0	120	1.43429020300391	1	0	0
258	0	99	44	0	80	0	122	0.926673826004844	1	0	0
259	1	122	105	1	79	0	120	0.846915072004776	1	0	0
260	0	130	45	0	78	0	122	1.10651168698678	1	0	0
261	1	64	42	0	77	0	120	2.38772385701304	1	0	0
262	1	73	123	1	76	0	120	0.64239640100277	1	0	0
263	0	31	50	0	75	0	122	0.830184719001409	1	0	0
264	1	55	130	1	74	0	120	0.649359064002056	1	0	0
265	0	91	134	1	73	0	122	0.797798057988985	1	0	0
266	0	80	30	0	72	0	122	1.08745036300388	1	0	0
267	1	97	8	1	71	0	120	0.83668477399624	1	0	0
268	0	136	32	0	70	0	122	0.953136944008293	1	0	0
269	0	137	75	0	69	0	122	1.54454772800091	1	0	0
270	0	86	45	1	68	0	122	0.855844136996893	1	0	0
271	1	9	11	0	67	0	120	3.45857628501835	1	0	0
272	0	69	107	1	66	0	122	0.685683307005093	1	0	0
273	1	149	134	1	66	0	122	1.02376429998549	0	0	0
274	0	40	77	0	68	0	122	0.844815710006515	1	0	0
275	0	29	60	0	67	0	122	1.47289404601906	1	0	0
276	1	131	131	0	66	0	120	2.93914426400443	1	0	0
277	0	134	78	0	66	0	122	1.50708501800545	1	0	0
278	1	123	131	0	65	0	120	0.920607274980284	1	0	0
279	0	94	70	1	64	0	120	1.92530578700826	0	0	0
280	0	14	61	0	66	0	120	1.90194736098056	0	0	0
281	1	140	117	1	69	0	120	1.05460389301879	1	0	0
282	0	43	34	0	68	0	122	1.11471295900992	1	0	0
283	0	18	16	0	67	0	122	4.31960592998075	1	0	0
284	0	30	47	1	66	0	122	0.890789898025105	1	0	0
285	1	96	37	0	66	0	122	1.67757368198363	0	0	0
286	0	92	4	1	68	0	122	1.04758414899698	1	0	0
287	1	74	13	1	67	0	120	0.983059008984128	1	0	0
288	1	61	113	0	66	0	120	1.16910879299394	1	0	0
289	0	15	95	1	66	0	122	0.966811047983356	1	0	0
290	0	50	51	1	65	0	122	1.04506879602559	1	0	0
291	0	106	81	0	64	0	120	1.14504065099754	0	0	0
292	0	69	111	1	66	0	120	1.42524840901024	0	0	0
293	1	109	80	0	69	0	120	1.24509066299652	1	0	0
294	0	82	26	1	68	0	122	6.20850256699487	1	0	0
295	0	130	90	0	67	0	122	1.02934181201272	1	0	0
296	0	57	148	0	66	0	122	1.09856829198543	1	0	0
297	1	26	84	1	66	0	120	0.844056080008158	1	0	0
298	1	105	107	0	65	0	120	1.28739391200361	1	0	0
299	0	79	39	1	64	0	122	1.01807058101986	1	0	0
300	0	85	89	0	63	0	122	0.939289394009393	1	0	0
301	0	99	91	0	63	0	122	2.69944017598755	1	0	0
302	1	92	65	0	60	0	120	1.17970295200939	1	0	0
303	0	15	65	1	58	0	122	1.39788005402079	1	0	0
304	1	82	93	1	55	0	120	1.29355123100686	1	0	0
305	0	86	41	1	53	0	122	3.12685354601126	1	0	0
306	0	51	106	0	50	0	122	2.8389314179949	1	0	0
307	1	100	16	0	48	0	120	2.33106855300139	1	0	0
308	0	103	131	1	45	0	120	1.21949401299935	0	0	0
309	0	44	114	0	53	0	122	2.51967802201398	1	0	0
310	0	32	113	0	51	0	122	2.01675053898362	1	0	0
311	0	11	6	0	48	0	122	1.62153175700223	1	0	0
312	0	87	102	0	46	0	122	5.3221355539863	1	0	0
313	0	110	127	0	44	0	122	1.83474826798192	1	0	0
314	1	65	5	1	42	0	120	1.13518884900259	1	0	0
315	1	32	126	0	39	0	120	3.55923575200723	1	0	0
316	1	27	32	0	37	0	120	1.10129933999269	1	0	0
317	0	47	17	1	35	0	122	1.44779414997902	1	0	0
318	1	29	87	0	33	0	122	1.53061712600174	0	0	0
319	0	59	36	1	39	0	120	1.40359886400984	0	0	0
320	1	96	65	1	46	0	120	2.03325728999334	1	0	0
321	0	132	54	1	44	0	122	1.88482782198116	1	0	0
322	0	108	115	0	42	0	122	2.07057573599741	1	0	0
323	0	123	34	0	40	0	122	1.69719855699805	1	0	0
324	0	12	148	1	38	0	122	1.62739685899578	1	0	0
325	0	65	1	0	36	0	120	1.58390256602434	0	0	0
326	0	146	88	1	42	0	122	1.51760500398814	1	0	0
327	1	15	13	0	40	0	122	1.59772003197577	0	0	0
328	0	66	75	0	45	0	122	1.50754403701285	1	0	0
329	1	126	107	1	43	0	120	3.19674898701487	1	0	0
330	0	21	50	1	42	0	120	1.32999530798406	0	0	0
331	0	66	64	0	47	0	120	1.47446274300455	0	0	0
332	1	27	21	0	52	0	120	1.75664355797926	1	0	0
333	0	59	93	0	50	0	122	4.01184741000179	1	0	0
334	0	77	71	1	48	0	120	1.98537523599225	0	0	0
335	1	133	133	0	53	0	120	1.39056031100336	1	0	0
336	0	128	18	0	51	0	122	6.54091647599125	1	0	0
337	1	59	16	0	50	0	122	1.9489418079902	0	0	0
338	1	110	114	0	55	0	120	1.42788878901047	1	0	0
339	0	119	54	0	53	0	122	0.984496441989904	1	0	0
340	0	120	43	0	52	0	122	1.16649350299849	1	0	0
341	1	57	81	1	50	0	120	1.42106506900745	1	0	0
342	1	82	89	1	49	0	120	1.61775551599567	1	0	0
343	0	32	56	1	47	0	122	1.57445965000079	1	0	0
344	0	134	9	1	46	0	122	1.29344992901315	1	0	0
345	1	38	16	1	45	0	122	1.99574600000051	0	0	0
346	0	121	30	0	49	0	120	1.67636326397769	0	0	0
347	1	109	26	1	53	0	120	1.38323355698958	1	0	0
348	1	146	114	1	52	0	122	1.63668100000359	0	0	0
349	1	100	94	0	56	0	120	1.86540972901275	1	0	0
350	1	72	109	0	54	0	122	1.91599805100122	0	0	0
351	1	68	141	0	58	0	120	1.12411243398674	1	0	0
352	1	73	54	1	57	0	122	1.46881286799908	0	0	0
353	1	65	142	0	61	0	120	1.15102447100799	1	0	0
354	0	119	94	0	59	0	122	1.15159587599919	1	0	0
355	1	134	1	0	58	0	120	1.1823172379809	1	0	0
356	0	80	70	1	57	0	122	1.14861405300326	1	0	0
357	0	13	120	0	56	0	122	1.08489631398697	1	0	0
358	0	23	119	1	54	0	122	1.21504151099361	1	0	0
359	0	111	8	1	53	0	122	5.69939027700457	1	0	0
360	1	52	85	1	52	0	120	1.17279657200561	1	0	0
361	0	92	29	0	51	0	122	1.10018255299656	1	0	0
362	1	86	32	1	50	0	120	1.19747189499321	1	0	0
363	1	145	122	0	49	0	120	0.883408714988036	1	0	0
364	1	124	26	1	48	0	122	1.02143342001364	0	0	0
365	0	68	123	1	51	0	122	0.977608278975822	1	0	0
366	1	51	28	0	50	0	120	0.952711421006825	1	0	0
367	1	3	82	0	49	0	122	1.7678429549851	0	0	0
368	0	134	86	0	52	0	122	2.59062475399696	1	0	0
369	1	33	120	1	51	0	120	0.812385630997596	1	0	0
370	1	5	68	0	50	0	122	1.28987460400094	0	0	0
371	0	76	1	1	53	0	122	0.971813281008508	1	0	0
372	1	23	86	1	52	0	122	1.22672021799372	0	0	0
373	1	29	91	0	55	0	122	0.814456523017725	0	0	0
374	1	126	113	1	58	0	120	1.12357923100353	1	0	0
375	1	107	90	0	57	0	120	2.18788272800157	1	0	0
376	0	72	120	1	56	0	122	1.70551479002461	1	0	0
377	1	18	23	1	55	0	120	0.907277860998875	1	0	0
378	0	76	83	1	54	0	122	0.851664172019809	1	0	0
379	0	117	49	0	53	0	122	0.958744957984891	1	0	0
380	1	52	140	0	52	0	122	1.0138745699951	0	0	0
381	1	60	64	0	55	0	120	1.13891096200678	1	0	0
382	0	50	57	0	54	0	122	1.43485302999034	1	0	0
383	1	5	138	0	53	0	122	1.28772915198351	0	0	0
384	0	14	8	0	56	0	122	1.0349189619883	1	0	0
385	1	101	23	0	55	0	120	7.74774962500669	1	0	0
386	0	82	121	0	54	0	122	7.7874422899913	1	0	0
387	0	56	15	0	53	0	122	1.88126691099023	1	0	0
388	1	134	79	0	52	0	120	3.02014452198637	1	0	0
389	1	115	12	1	51	0	120	0.808272291993489	1	0	0
390	0	36	79	1	51	0	122	0.902260228001978	1	0	0
391	0	148	32	1	50	0	122	2.59175411000615	1	0	0
392	0	101	117	1	49	0	122	3.10845659600454	1	0	0
393	1	10	8	0	48	0	120	0.821841741999378	1	0	0
394	0	24	128	0	47	0	122	1.37063490899163	1	0	0
395	0	69	23	1	46	0	122	1.3607125050039	1	0	0
396	1	86	16	1	46	0	122	0.903983041003812	0	0	0
397	1	149	142	1	48	0	120	0.913440523989266	1	0	0
398	0	81	125	0	47	0	120	3.55396241499693	0	0	0
399	0	37	45	1	50	0	122	0.961865576013224	1	0	0
400	0	76	126	1	49	0	122	0.896773370011942	1	0	0
401	1	120	145	1	48	0	122	2.73035843999241	0	0	0
402	0	105	112	0	56	0	120	5.00900921499124	0	0	0
403	0	74	129	0	63	0	122	2.4190504369908	1	0	0
404	1	140	5	0	60	0	120	0.666179479012499	1	0	0
405	1	144	6	0	58	0	120	1.04427009102073	1	0	0
406	0	20	26	1	56	0	120	1.59998154698405	0	0	0
407	0	73	27	0	62	0	122	2.80560055500246	1	0	0
408	1	3	98	1	60	0	120	2.89957566300291	1	0	0
409	1	30	15	0	59	0	122	1.78834670200013	0	0	0
410	1	112	28	1	65	0	120	0.626681244990323	1	0	0
411	0	25	111	1	63	0	122	5.86315936097526	1	0	0
412	0	80	130	0	61	0	122	1.2181864400045	1	0	0
413	1	37	42	1	59	0	122	3.04716494100285	0	0	0
414	1	26	108	1	65	0	120	1.43364641000517	1	0	0
415	1	122	43	0	63	0	120	1.35054751700955	1	0	0
416	1	40	98	1	61	0	122	2.12577630899614	0	0	0
417	1	69	9	1	66	0	120	1.06955230698804	1	0	0
418	1	31	91	0	65	0	120	0.720207051985199	1	0	0
419	1	89	64	0	63	0	120	1.21758280601352	1	0	0
420	1	118	9	0	61	0	120	1.07761440900504	1	0	0
421	0	109	138	0	60	0	120	9.22429429600015	0	0	0
422	1	95	92	0	64	0	120	0.708859460020903	1	0	0
423	0	105	2	1	63	0	122	1.09392425199621	1	0	0
424	1	51	10	1	61	0	122	1.01526826998452	0	0	0
425	0	73	92	0	66	0	120	4.05294665999827	0	0	0
426	0	32	30	1	70	0	122	1.01651180998306	1	0	0
427	0	8	72	1	69	0	122	1.42934391199378	1	0	0
428	1	105	123	1	67	0	120	1.19380101398565	1	0	0
429	0	131	137	1	66	0	122	1.71113691999926	1	0	0
430	0	81	57	1	65	0	122	1.47294029698242	1	0	0
431	1	41	58	1	63	0	122	1.89908199402271	0	0	0
432	1	81	105	1	68	0	122	2.34081497800071	0	0	0
433	0	126	98	0	72	0	122	1.10767140999087	1	0	0
434	1	28	92	0	70	0	120	1.06192417402053	1	0	0
435	0	117	11	0	69	0	122	1.65591598799801	1	0	0
436	1	21	118	1	68	0	120	1.46799169800943	1	0	0
437	0	59	51	1	66	0	122	1.92650409499765	1	0	0
438	1	13	62	0	65	0	120	3.13378571899375	1	0	0
439	0	48	135	1	64	0	122	1.21487784598139	1	0	0
440	1	48	74	0	63	0	120	1.58739113298361	1	0	0
441	1	127	128	1	61	0	120	3.48947608200251	1	0	0
442	0	75	150	0	60	0	122	1.01090200498584	1	0	0
443	0	16	116	0	59	0	120	0.872417000005953	0	0	0
444	1	104	120	0	62	0	120	2.71171445702203	1	0	0
445	0	58	136	0	61	0	122	1.27610170200933	1	0	0
446	1	51	54	0	60	0	120	0.846818491001613	1	0	0
447	1	19	5	1	59	0	120	3.97818417099188	1	0	0
448	1	59	12	0	58	0	120	1.36846705302014	1	0	0
449	1	105	134	0	57	0	122	2.05494439500035	0	0	0
450	1	75	71	0	60	0	120	3.66614340999513	1	0	0
451	0	9	112	1	59	0	122	2.99519553000573	1	0	0
452	1	8	128	1	58	0	120	2.71803034702316	1	0	0
453	1	50	88	0	57	0	122	1.01429438698688	0	0	0
454	0	68	147	0	60	0	122	1.09100173399202	1	0	0
455	1	52	83	0	59	0	122	0.740564831008669	0	0	0
456	0	148	51	1	62	0	122	0.956395899993367	1	0	0
457	1	56	45	0	61	0	122	2.15589580501546	0	0	0
458	0	135	9	0	64	0	120	1.40385465000873	0	0	0
459	0	16	6	1	68	0	122	0.952999128989177	1	0	0
460	1	95	45	0	67	0	120	1.27156309699058	1	0	0
461	0	146	100	0	65	0	122	0.83474273502361	1	0	0
462	1	102	46	0	64	0	120	1.60603416900267	1	0	0
463	0	130	111	0	63	0	122	1.33969964299467	1	0	0
464	0	132	75	1	63	0	120	6.71547463999013	0	0	0
465	1	24	26	1	66	0	120	0.68468710500747	1	0	0
466	1	111	96	1	65	0	122	1.04700178198982	0	0	0
467	1	10	65	1	68	0	120	0.777667268004734	1	0	0
468	1	72	146	1	67	0	122	1.24811947799753	0	0	0
469	0	15	84	1	69	0	120	0.844214073003968	0	0	0
470	1	94	70	0	72	0	120	1.27988638100214	1	0	0
471	0	140	14	0	71	0	122	2.14642633500625	1	0	0
472	1	43	93	1	70	0	122	1.8980237020005	0	0	0
473	0	40	76	1	73	0	122	0.938657517981483	1	0	0
474	1	74	73	1	72	0	122	1.69127155299066	0	0	0
475	0	43	113	1	75	0	122	1.22537885801285	1	0	0
476	1	133	102	0	74	0	122	0.904716770019149	0	0	0
477	1	90	101	0	77	0	120	3.26616296797874	1	0	0
478	1	89	95	1	76	0	120	1.07759257001453	1	0	0
479	0	8	134	0	75	0	122	0.767011546995491	1	0	0
480	0	18	10	1	74	0	122	1.59007866799948	1	0	0
481	0	147	128	0	73	0	122	0.707978744991124	1	0	0
482	0	67	77	0	73	0	122	0.668866067979252	1	0	0
483	0	142	131	1	72	0	122	0.647083683026722	1	0	0
484	1	126	27	1	71	0	120	0.995190393994562	1	0	0
485	1	61	72	0	70	0	120	8.27324863799731	1	0	0
486	0	50	70	1	69	0	122	0.829041896999115	1	0	0
487	1	136	69	1	68	0	122	1.51052345399512	0	0	0
488	1	30	140	0	71	0	122	0.790727709012572	0	0	0
489	0	46	66	1	73	0	122	0.94877563501359	1	0	0
490	0	2	113	0	73	0	122	0.756246114004171	1	0	0
491	1	62	49	0	72	0	120	6.67563977101236	1	0	0
492	0	136	124	1	71	0	122	0.886435391992563	1	0	0
493	0	132	39	1	70	0	122	0.76834793301532	1	0	0
494	0	65	62	0	69	0	122	0.766541176999453	1	0	0
495	0	61	6	1	69	0	122	1.1654163839994	1	0	0
496	0	148	147	1	68	0	122	0.76485750899883	1	0	0
497	0	44	9	0	67	0	122	1.22796511201886	1	0	0
498	1	121	23	1	66	0	120	1.5280612349743	1	0	0
499	1	131	136	1	66	0	120	0.848519916005898	1	0	0
500	1	83	53	1	65	0	120	0.707892300997628	1	0	0
