Trial	Gender_Face1	Face1_nb	Face2_nb	Right_left_flip	Nb_Bubbles	Overlap_Target	Response	RT	Accuracy	Simi2Target	Trial_Reward
1	0	91	48	0	50	0	120	1.84805897200022	1	0	0
2	1	132	30	0	47	0	122	0.731760742999541	1	0	0
3	1	60	120	1	45	0	122	0.793913586999224	1	0	0
4	1	95	87	0	42	0	122	1.09802894400036	1	0	0
5	1	51	145	1	40	0	122	1.25898031300039	1	0	0
6	0	4	14	1	37	0	120	0.605747048999547	1	0	0
7	1	35	53	1	35	0	122	0.914521521000097	1	0	0
8	1	69	147	1	32	0	120	2.76322535800045	0	0	0
9	1	7	77	1	40	0	120	1.57446729299954	0	0	0
10	0	109	146	0	47	0	120	1.31110137499945	1	0	0
11	1	146	21	0	45	0	122	1.79162910200012	1	0	0
12	0	31	68	1	43	0	122	3.10176392599988	0	0	0
13	1	80	126	0	49	0	122	1.77442173700001	1	0	0
14	0	53	73	1	47	0	120	3.50843163600075	1	0	0
15	0	34	100	0	45	0	120	1.14904625899999	1	0	0
16	1	132	124	0	43	0	122	1.98749318700084	1	0	0
17	1	40	106	0	41	0	122	1.00105317700036	1	0	0
18	0	67	11	1	39	0	120	1.24995794400002	1	0	0
19	1	5	125	0	37	0	120	2.12882248200003	0	0	0
20	1	122	130	1	43	0	122	0.74490728299952	1	0	0
21	1	71	70	1	41	0	120	2.15062044600018	0	0	0
22	1	48	22	1	47	0	122	1.28631637299986	1	0	0
23	1	129	92	0	45	0	122	1.4245135430001	1	0	0
24	0	17	10	1	44	0	122	2.80480891499974	0	0	0
25	1	131	25	1	49	0	122	1.56129108799996	1	0	0
26	1	86	2	1	47	0	122	1.88854499799982	1	0	0
27	1	140	11	1	46	0	122	0.881763458999558	1	0	0
28	1	129	65	0	44	0	122	1.63615741099966	1	0	0
29	1	115	110	0	42	0	122	2.64748274999965	1	0	0
30	1	18	46	1	41	0	122	2.28989951699987	1	0	0
31	1	47	14	1	39	0	122	3.5468398059993	1	0	0
32	1	75	3	0	38	0	122	0.826544651999939	1	0	0
33	1	51	63	1	36	0	122	0.935193350999725	1	0	0
34	0	38	115	1	35	0	120	1.39024000200061	1	0	0
35	1	84	30	0	33	0	122	1.40376938999998	1	0	0
36	0	4	60	0	32	0	120	5.60004387200024	1	0	0
37	1	62	67	1	30	0	122	3.12447839600009	1	0	0
38	1	8	102	1	29	0	120	3.79748337900037	0	0	0
39	1	67	87	1	33	0	122	1.04207403300006	1	0	0
40	1	57	140	1	32	0	122	1.07748756199999	1	0	0
41	0	43	7	1	30	0	120	1.18323529999998	1	0	0
42	0	126	137	1	29	0	120	2.28512826599945	1	0	0
43	1	120	60	1	28	0	122	2.61402884699964	1	0	0
44	0	18	73	1	26	0	120	2.37036029699993	1	0	0
45	0	103	28	0	25	0	122	1.48072807900007	0	0	0
46	0	15	97	0	29	0	120	3.36271726999985	1	0	0
47	0	125	83	1	28	0	120	2.71238226700007	1	0	0
48	1	145	6	1	26	0	122	2.71343815200089	1	0	0
49	1	2	18	0	25	0	120	1.79413409500012	0	0	0
50	0	10	9	1	29	0	120	4.41529262099994	1	0	0
51	0	54	84	1	28	0	122	1.43551857900002	0	0	0
52	1	57	53	1	31	0	122	1.88748211699931	1	0	0
53	1	106	9	1	30	0	122	1.28916255500008	1	0	0
54	0	50	94	1	29	0	120	1.8662408350001	1	0	0
55	0	134	19	1	28	0	120	1.67685611699926	1	0	0
56	0	69	115	1	27	0	120	2.59117587900073	1	0	0
57	1	111	114	0	25	0	120	3.04432734599959	0	0	0
58	0	127	140	1	29	0	120	3.51165138600027	1	0	0
59	0	21	148	0	28	0	120	1.32046637199983	1	0	0
60	0	21	109	1	27	0	120	1.10461382099948	1	0	0
61	1	93	61	0	26	0	122	1.04095664499982	1	0	0
62	1	121	117	0	24	0	122	1.6929190259998	1	0	0
63	0	51	36	1	23	0	120	0.966464831999474	1	0	0
64	0	36	19	0	22	0	120	4.30067701200005	1	0	0
65	1	80	34	0	21	0	122	2.72522136899988	1	0	0
66	1	115	98	0	20	0	122	1.34137002999978	1	0	0
67	0	84	66	0	19	0	120	1.47716836399923	1	0	0
68	1	4	76	1	18	0	122	1.49514456399993	1	0	0
69	0	98	72	0	17	0	122	1.88834480200057	0	0	0
70	0	119	67	1	20	0	120	2.14630048700019	1	0	0
71	0	19	23	1	19	0	122	2.11217532599949	0	0	0
72	1	23	111	1	22	0	122	1.62485236500015	1	0	0
73	1	87	41	0	21	0	122	1.95707526800015	1	0	0
74	0	96	26	0	20	0	120	0.971665596000094	1	0	0
75	0	124	12	1	19	0	122	3.41862907900031	0	0	0
76	0	13	124	1	22	0	122	1.82204179399923	0	0	0
77	1	101	33	1	25	0	120	1.82589920200007	0	0	0
78	0	55	39	0	28	0	120	1.1900181660003	1	0	0
79	1	17	7	0	27	0	120	2.85987922999993	0	0	0
80	0	35	99	0	30	0	120	1.19041582000045	1	0	0
81	0	141	79	1	29	0	120	1.66811802199936	1	0	0
82	0	103	55	1	28	0	120	3.71891987399977	1	0	0
83	0	109	58	0	27	0	120	0.89513314100077	1	0	0
84	0	54	129	0	26	0	122	1.88846831299998	0	0	0
85	0	19	71	1	29	0	120	0.761086418000559	1	0	0
86	0	141	86	1	28	0	122	1.352248186	0	0	0
87	0	143	43	0	30	0	122	2.36707465600011	0	0	0
88	0	49	114	0	33	0	122	2.51631930300027	0	0	0
89	0	29	43	1	36	0	122	1.5498814980001	0	0	0
90	0	115	25	1	39	0	120	2.01323313600005	1	0	0
91	1	139	82	0	38	0	122	2.56947898399994	1	0	0
92	0	41	135	1	37	0	122	1.91214895599933	0	0	0
93	1	99	136	0	40	0	122	1.10437425500004	1	0	0
94	1	35	114	1	39	0	122	2.17828139599987	1	0	0
95	0	133	138	0	38	0	120	1.83199451700057	1	0	0
96	1	72	38	0	37	0	122	1.91607361300066	1	0	0
97	0	44	107	1	36	0	122	1.44491891500002	0	0	0
98	1	146	70	0	39	0	120	4.17203034500017	0	0	0
99	1	68	131	1	41	0	122	1.0442917119999	1	0	0
100	1	150	56	0	40	0	122	0.877440316000502	1	0	0
101	1	32	88	0	40	0	122	1.20447488399986	1	0	0
102	1	141	45	0	37	0	122	1.46714642900042	1	0	0
103	1	96	58	1	35	0	122	3.1954369569994	1	0	0
104	0	54	123	1	32	0	122	3.81960241199977	0	0	0
105	1	104	125	0	40	0	120	1.0079862879993	0	0	0
106	0	28	34	0	47	0	122	1.42516549900029	0	0	0
107	1	118	77	0	54	0	122	1.40845922300014	1	0	0
108	1	42	147	0	52	0	122	1.9172686740003	1	0	0
109	0	29	111	1	50	0	120	2.07021355100005	1	0	0
110	1	38	137	0	48	0	122	1.35208055300063	1	0	0
111	0	80	38	1	46	0	122	1.95914533900032	0	0	0
112	1	74	132	0	52	0	122	1.93468442700032	1	0	0
113	1	104	13	1	50	0	122	1.29372506900017	1	0	0
114	1	67	35	1	48	0	122	0.975298907999786	1	0	0
115	0	43	73	1	46	0	122	1.21280481300073	0	0	0
116	0	22	134	1	52	0	122	2.70551510800033	0	0	0
117	1	149	124	0	57	0	120	2.9465798400006	0	0	0
118	0	133	107	0	62	0	120	2.93462246499985	1	0	0
119	1	148	13	0	61	0	122	1.52864721599963	1	0	0
120	1	7	118	0	59	0	122	0.816777566000383	1	0	0
121	0	67	47	0	57	0	122	1.41368593399966	0	0	0
122	1	114	19	1	62	0	120	1.75454703700052	0	0	0
123	1	12	32	0	67	0	122	4.28120097600004	1	0	0
124	1	104	132	0	65	0	122	3.20992963999925	1	0	0
125	1	78	112	0	64	0	122	1.19876587300041	1	0	0
126	1	85	56	1	62	0	122	2.41262400800042	1	0	0
127	0	83	141	1	61	0	120	10.3286252130001	1	0	0
128	0	9	12	1	60	0	120	1.09723949599993	1	0	0
129	1	146	62	0	58	0	120	1.24163541899998	0	0	0
130	1	136	79	0	62	0	120	1.84441834399968	0	0	0
131	0	30	35	1	67	0	120	1.18932349100032	1	0	0
132	1	32	53	0	65	0	120	2.51795430599941	0	0	0
133	0	26	24	1	69	0	120	0.878049091999856	1	0	0
134	1	117	43	0	68	0	122	1.42404873899977	1	0	0
135	0	141	73	1	67	0	120	1.37150634000045	1	0	0
136	0	92	15	1	65	0	120	1.28155505300037	1	0	0
137	1	67	123	0	64	0	122	1.6113720430003	1	0	0
138	0	79	116	1	63	0	122	4.14391364299991	0	0	0
139	0	26	59	0	67	0	120	2.66392990299937	1	0	0
140	1	68	1	1	65	0	122	0.961532360000092	1	0	0
141	1	128	29	0	64	0	122	1.0560294020006	1	0	0
142	0	128	55	1	63	0	122	1.12313003600048	0	0	0
143	0	8	55	1	67	0	120	0.947017948999928	1	0	0
144	0	57	98	1	65	0	120	1.02625142799934	1	0	0
145	1	78	71	1	64	0	122	0.925632970000152	1	0	0
146	0	66	41	1	63	0	122	1.53431334400011	0	0	0
147	0	109	133	1	66	0	122	4.12614872799986	0	0	0
148	0	74	85	0	70	0	120	1.33460392800043	1	0	0
149	0	108	92	1	69	0	120	1.90197645500029	1	0	0
150	0	85	137	1	68	0	120	1.02248208499987	1	0	0
151	1	71	83	1	67	0	120	2.30635125100071	0	0	0
152	1	62	40	1	70	0	122	1.66760558900023	1	0	0
153	0	81	90	1	69	0	120	0.926290651000272	1	0	0
154	0	116	73	0	68	0	120	0.90266942100061	1	0	0
155	0	80	61	1	67	0	120	1.07873142999961	1	0	0
156	0	56	29	1	66	0	120	2.48138275200017	1	0	0
157	0	101	122	0	65	0	122	1.00112401600018	0	0	0
158	1	5	19	0	68	0	122	1.17579588999979	1	0	0
159	1	81	48	1	67	0	122	1.06221718799952	1	0	0
160	1	7	108	0	66	0	122	0.893267250999997	1	0	0
161	0	115	21	0	65	0	122	1.12159779500053	0	0	0
162	0	98	56	1	68	0	120	1.2811710420001	1	0	0
163	0	134	146	1	67	0	120	0.762238582999998	1	0	0
164	1	117	126	1	66	0	122	1.82629110800008	1	0	0
165	0	53	96	0	65	0	120	1.11793200600005	1	0	0
166	0	120	115	0	64	0	120	0.827935345999322	1	0	0
167	1	127	73	1	63	0	122	1.49790244500036	1	0	0
168	0	133	120	0	62	0	120	0.956087142999422	1	0	0
169	1	61	140	0	61	0	120	0.75426873699962	0	0	0
170	0	130	129	0	64	0	120	0.856857576999573	1	0	0
171	1	35	90	1	63	0	122	1.1637482039996	1	0	0
172	1	39	15	1	62	0	122	2.53872885700002	1	0	0
173	1	90	114	1	61	0	122	0.745704589000525	1	0	0
174	0	37	127	0	60	0	120	0.849086354000065	1	0	0
175	0	60	82	0	59	0	120	0.883721823999622	1	0	0
176	1	3	32	0	59	0	122	3.59021987600045	1	0	0
177	1	106	24	0	58	0	122	1.17098913399968	1	0	0
178	0	55	58	1	57	0	122	2.48832668799969	0	0	0
179	1	29	134	0	59	0	120	0.875111551999908	0	0	0
180	0	84	16	1	62	0	122	1.27727438799957	0	0	0
181	0	48	31	0	64	0	120	1.27961757499997	1	0	0
182	0	3	54	1	64	0	120	4.10568176800007	1	0	0
183	0	113	82	1	63	0	120	1.07449749199986	1	0	0
184	1	92	56	1	62	0	122	0.989102679000098	1	0	0
185	0	122	97	1	61	0	120	1.84269590500026	1	0	0
186	0	76	59	1	60	0	122	2.79761332399994	0	0	0
187	1	68	61	1	63	0	122	1.99362037799983	1	0	0
188	1	6	12	1	62	0	122	1.20019800699993	1	0	0
189	0	143	148	1	61	0	122	1.50133871199978	0	0	0
190	0	130	93	1	64	0	120	1.5098474410006	1	0	0
191	1	47	8	0	63	0	122	0.95831801499935	1	0	0
192	0	83	11	1	62	0	122	1.68572484800006	0	0	0
193	0	148	45	0	64	0	122	1.77472593699986	0	0	0
194	1	42	29	1	67	0	122	1.39720247999958	1	0	0
195	1	142	99	0	66	0	122	1.07915361999949	1	0	0
196	1	29	96	0	65	0	120	1.93169754599967	0	0	0
197	1	114	7	0	67	0	122	1.37861675899967	1	0	0
198	1	99	76	0	67	0	122	1.38483429500047	1	0	0
199	1	109	25	1	66	0	122	1.19594804500048	1	0	0
200	1	57	20	0	65	0	122	0.995241021999391	1	0	0
201	1	48	115	1	64	0	122	1.40360075399985	1	0	0
202	1	129	76	0	61	0	122	1.48771636699985	1	0	0
203	1	41	113	1	59	0	122	1.72811255700071	1	0	0
204	1	79	79	1	56	0	122	1.52546072000041	1	0	0
205	0	75	56	1	54	0	120	1.24520479100011	1	0	0
206	1	71	40	1	51	0	122	2.57690289899983	1	0	0
207	0	123	82	0	49	0	120	1.13527924000027	1	0	0
208	0	91	114	1	46	0	122	0.852204891999463	0	0	0
209	0	83	104	1	54	0	122	1.00971406999997	0	0	0
210	1	26	134	0	61	0	120	1.13427987199975	0	0	0
211	0	28	49	0	67	0	120	1.64566491000005	1	0	0
212	1	52	146	0	65	0	122	1.21745637099957	1	0	0
213	0	25	82	0	63	0	120	3.50965183100016	1	0	0
214	1	78	45	0	61	0	122	1.14227391700024	1	0	0
215	1	140	59	1	59	0	122	1.11762007200014	1	0	0
216	1	74	41	1	57	0	122	0.813353286000165	1	0	0
217	1	2	140	0	55	0	122	1.42603722799959	1	0	0
218	1	76	35	1	53	0	122	1.99856676699983	1	0	0
219	0	39	117	1	51	0	122	1.75485782399937	0	0	0
220	0	74	99	1	57	0	120	1.47364661699976	1	0	0
221	1	101	54	0	55	0	122	1.86800114000016	1	0	0
222	1	52	129	1	54	0	122	0.750899588999346	1	0	0
223	1	53	17	0	52	0	122	1.17329739599973	1	0	0
224	0	135	92	1	50	0	122	2.10768006500075	0	0	0
225	1	139	14	0	56	0	122	1.96416691800005	1	0	0
226	0	86	69	0	54	0	120	1.62583605300006	1	0	0
227	0	98	55	1	52	0	122	3.23797338699933	0	0	0
228	1	13	126	0	57	0	120	1.65792856000007	0	0	0
229	0	70	128	1	62	0	122	1.33245585699933	0	0	0
230	1	24	50	0	67	0	122	1.41177049299949	1	0	0
231	1	47	6	1	66	0	122	1.02404509000007	1	0	0
232	0	24	42	0	64	0	120	0.980239731999973	1	0	0
233	0	123	1	0	62	0	122	2.10683674000029	0	0	0
234	1	84	43	0	67	0	122	1.3793122370007	1	0	0
235	0	124	34	0	66	0	120	1.97623377800028	1	0	0
236	1	111	32	0	64	0	122	1.01525353800025	1	0	0
237	1	147	61	0	63	0	122	1.30570225599968	1	0	0
238	0	66	118	0	61	0	122	1.02083073499944	0	0	0
239	1	69	138	0	66	0	122	2.19347686200035	1	0	0
240	0	122	150	0	64	0	120	1.0156405710004	1	0	0
241	0	99	52	1	63	0	120	1.26801724600045	1	0	0
242	0	88	138	0	62	0	122	2.86936866299948	0	0	0
243	1	17	87	0	66	0	122	1.81588848699994	1	0	0
244	0	35	82	0	64	0	122	1.41980096499992	0	0	0
245	0	128	108	1	68	0	122	1.98420532599994	0	0	0
246	0	91	63	1	72	0	120	1.781590435	1	0	0
247	0	59	63	0	71	0	120	1.74694195699976	1	0	0
248	1	134	108	0	70	0	122	1.14650301900019	1	0	0
249	1	10	110	1	69	0	122	0.81792428800054	1	0	0
250	1	137	132	1	67	0	122	1.20646652699998	1	0	0
251	0	91	99	0	66	0	122	0.954613719000008	0	0	0
252	1	23	137	1	70	0	122	2.33806918099981	1	0	0
253	0	1	109	0	68	0	120	1.06536486700043	1	0	0
254	1	142	140	1	67	0	122	1.01896519500042	1	0	0
255	0	101	121	0	66	0	120	10.1996648259992	1	0	0
256	1	113	49	0	65	0	122	0.788814576999357	1	0	0
257	0	125	71	0	64	0	120	1.32161523599916	1	0	0
258	1	66	74	1	63	0	120	1.2021064190003	0	0	0
259	1	33	82	0	66	0	120	0.990995991000091	0	0	0
260	1	55	91	1	69	0	122	2.17197114099963	1	0	0
261	0	12	44	1	68	0	120	1.45047599699956	1	0	0
262	0	23	131	0	67	0	122	3.52553829299995	0	0	0
263	1	140	71	0	71	0	122	2.30186080899966	1	0	0
264	0	80	31	0	69	0	120	1.18210340400037	1	0	0
265	1	92	27	0	68	0	122	0.993562708999889	1	0	0
266	0	51	121	1	67	0	122	1.56981781200011	0	0	0
267	1	80	25	1	71	0	122	1.12829203099955	1	0	0
268	0	65	7	1	70	0	120	1.84053574500012	1	0	0
269	0	23	112	1	69	0	122	1.81989258200065	0	0	0
270	1	28	94	0	72	0	122	1.09320091500012	1	0	0
271	1	123	129	0	71	0	122	1.09413204999964	1	0	0
272	0	49	119	0	70	0	122	1.71431001400015	0	0	0
273	0	58	12	0	73	0	120	2.69081699800063	1	0	0
274	0	80	75	1	72	0	122	0.900521680000566	0	0	0
275	1	100	142	0	74	0	122	1.59772248700028	1	0	0
276	0	44	135	1	74	0	120	0.915328512999622	1	0	0
277	0	82	45	1	73	0	120	1.22678422200079	1	0	0
278	1	123	39	0	72	0	122	1.20714150099957	1	0	0
279	1	105	59	0	71	0	122	8.36409283400008	1	0	0
280	0	61	17	1	70	0	120	1.06613941499927	1	0	0
281	0	40	87	0	69	0	120	1.21805232800034	1	0	0
282	1	34	106	0	68	0	122	1.01668170499943	1	0	0
283	0	20	133	0	67	0	120	1.1418873800003	1	0	0
284	0	127	74	1	66	0	120	1.61229956100033	1	0	0
285	0	15	102	1	65	0	122	0.74586266300048	0	0	0
286	0	91	50	0	68	0	120	5.41650084899993	1	0	0
287	1	87	92	1	67	0	122	2.73296302399922	1	0	0
288	1	44	16	1	66	0	120	1.26896060700074	0	0	0
289	0	81	140	0	69	0	120	1.85547014199983	1	0	0
290	0	105	105	1	68	0	120	1.30577833300049	1	0	0
291	1	59	37	1	67	0	122	1.39205265300006	1	0	0
292	0	118	133	0	66	0	120	0.936545174000457	1	0	0
293	0	18	17	1	65	0	122	1.12113598799988	0	0	0
294	0	53	67	0	68	0	122	1.24167944300007	0	0	0
295	1	116	98	0	70	0	122	0.873888355000418	1	0	0
296	1	64	146	1	69	0	122	0.998802226000407	1	0	0
297	1	78	73	1	68	0	122	1.12304292999943	1	0	0
298	0	81	136	1	68	0	120	1.27545612899939	1	0	0
299	0	13	138	0	67	0	122	1.30199180799991	0	0	0
300	1	100	1	0	69	0	122	1.32646875899991	1	0	0
301	0	41	31	1	69	0	120	1.00473789500029	1	0	0
302	1	137	96	0	66	0	122	0.954298380999717	1	0	0
303	0	43	70	1	64	0	120	2.07161790800001	1	0	0
304	0	71	104	1	61	0	122	1.10091787300007	0	0	0
305	0	127	91	0	69	0	120	1.26151882399972	1	0	0
306	0	46	35	1	67	0	120	1.02420695700039	1	0	0
307	1	99	36	0	65	0	122	0.796623397000076	1	0	0
308	1	128	84	0	62	0	122	0.977014492000308	1	0	0
309	0	41	123	0	60	0	120	1.5191198120001	1	0	0
310	0	104	57	1	58	0	120	1.41125685999941	1	0	0
311	1	113	111	1	56	0	122	0.813105956000072	1	0	0
312	0	82	111	1	53	0	122	1.0889636259999	0	0	0
313	0	105	75	1	60	0	122	1.70658898900001	0	0	0
314	0	26	150	1	66	0	120	2.8033183109992	1	0	0
315	1	82	122	1	64	0	122	0.95934478900017	1	0	0
316	0	49	117	0	62	0	122	4.28673472900027	0	0	0
317	1	38	132	0	68	0	122	1.15265145800004	1	0	0
318	0	88	29	1	66	0	122	0.927147716000036	0	0	0
319	1	58	43	1	72	0	122	1.63911422099955	1	0	0
320	0	9	123	1	70	0	120	0.858547298000303	1	0	0
321	1	130	79	1	69	0	122	0.845659853000143	1	0	0
322	0	27	17	0	67	0	122	0.976108890999967	0	0	0
323	1	71	90	1	72	0	122	1.34294004500043	1	0	0
324	1	20	112	0	71	0	122	1.51779969499967	1	0	0
325	0	34	136	1	69	0	122	1.79051877199981	0	0	0
326	1	49	146	1	74	0	122	1.2845386959998	1	0	0
327	0	12	36	1	72	0	120	1.30943806800042	1	0	0
328	1	107	123	1	71	0	122	0.83846625499973	1	0	0
329	1	83	31	1	69	0	122	1.01759898	1	0	0
330	1	72	105	1	68	0	122	1.12634022099974	1	0	0
331	0	5	107	1	66	0	120	1.28582178800025	1	0	0
332	1	52	100	0	65	0	122	0.943721906000064	1	0	0
333	1	81	58	0	63	0	120	1.3033677200001	0	0	0
334	0	24	81	1	68	0	120	3.90349553200031	1	0	0
335	1	76	8	1	66	0	122	1.07266067500041	1	0	0
336	0	139	13	0	65	0	122	3.17059679900012	0	0	0
337	0	43	108	0	69	0	120	1.5206336049996	1	0	0
338	1	145	125	0	67	0	122	1.06486147400028	1	0	0
339	1	28	109	0	66	0	122	0.77547208299984	1	0	0
340	1	34	51	0	65	0	122	1.72073175900005	1	0	0
341	0	68	107	0	63	0	120	2.99338463200002	1	0	0
342	0	39	2	0	62	0	120	0.96634882699982	1	0	0
343	0	137	101	1	61	0	120	0.87597095000001	1	0	0
344	0	5	98	0	60	0	120	0.742717913999513	1	0	0
345	1	19	37	0	58	0	122	1.19814114600013	1	0	0
346	1	89	150	0	57	0	122	1.46622890300023	1	0	0
347	1	145	73	1	56	0	122	1.70112515099936	1	0	0
348	0	80	56	1	55	0	120	0.981917561000046	1	0	0
349	1	27	133	0	53	0	122	1.30216322200067	1	0	0
350	0	34	27	0	52	0	120	0.741036131000328	1	0	0
351	0	112	18	1	51	0	120	2.16433824900014	1	0	0
352	0	94	101	0	50	0	122	0.994199946999288	0	0	0
353	1	132	111	0	53	0	122	1.08739651500036	1	0	0
354	0	71	108	0	52	0	122	5.39380276599968	0	0	0
355	1	128	1	0	56	0	122	0.950708218000727	1	0	0
356	0	50	142	0	55	0	120	1.15761313500025	1	0	0
357	1	113	61	1	53	0	122	1.31655370499993	1	0	0
358	0	108	145	0	52	0	122	3.24400163700011	0	0	0
359	0	110	80	0	56	0	120	1.04828460600038	1	0	0
360	0	37	113	1	54	0	120	1.21989713400035	1	0	0
361	0	140	146	0	53	0	122	1.41538298900014	0	0	0
362	0	65	33	1	56	0	122	2.00365594499999	0	0	0
363	0	21	1	0	60	0	120	2.28869197899985	1	0	0
364	0	93	109	1	59	0	122	4.80179840399978	0	0	0
365	0	47	83	0	62	0	120	1.12721223400058	1	0	0
366	0	32	35	0	61	0	120	3.02319503499984	1	0	0
367	0	142	141	0	60	0	120	1.44287581399931	1	0	0
368	1	143	50	0	59	0	120	1.02201671100011	0	0	0
369	1	42	52	0	62	0	120	2.02583167900048	0	0	0
370	0	37	9	1	65	0	120	1.05431855100051	1	0	0
371	0	147	85	0	64	0	120	1.24212457800058	1	0	0
372	1	17	138	0	63	0	120	1.45334235700011	0	0	0
373	0	85	2	0	66	0	120	0.679617675999907	1	0	0
374	1	59	123	1	65	0	120	1.84240760400007	0	0	0
375	1	48	104	1	68	0	122	2.19711554400055	1	0	0
376	1	150	54	1	67	0	122	1.33851524900001	1	0	0
377	0	8	150	0	66	0	120	0.930188074999933	1	0	0
378	1	27	13	0	65	0	122	0.801963677999993	1	0	0
379	1	83	118	0	64	0	122	1.11584570000014	1	0	0
380	1	127	41	0	63	0	122	1.11940153499927	1	0	0
381	1	29	110	0	62	0	122	1.67831213299996	1	0	0
382	0	50	6	1	61	0	120	1.22520090499984	1	0	0
383	1	34	150	1	60	0	122	0.956903524000154	1	0	0
384	1	38	75	1	59	0	122	1.00389202999941	1	0	0
385	1	14	30	1	58	0	122	0.936528511000688	1	0	0
386	1	122	33	0	58	0	122	1.55290059000072	1	0	0
387	0	15	95	1	57	0	120	3.20714514000065	1	0	0
388	0	124	137	0	56	0	120	2.04467921800006	1	0	0
389	1	85	107	0	55	0	122	0.727251302000695	1	0	0
390	1	4	18	1	54	0	122	1.1191208500004	1	0	0
391	1	112	4	0	53	0	122	1.75229428799958	1	0	0
392	1	106	141	1	53	0	122	0.99050212200018	1	0	0
393	1	10	47	0	52	0	122	1.0842809679998	1	0	0
394	0	100	134	0	51	0	120	6.88640162800039	1	0	0
395	1	33	89	0	50	0	122	3.85588668800028	1	0	0
396	0	121	89	0	50	0	120	1.84271287699994	1	0	0
397	1	115	23	0	49	0	122	0.773592852999172	1	0	0
398	1	60	91	0	48	0	122	0.827674277999904	1	0	0
399	1	113	142	0	47	0	122	1.38414624199959	1	0	0
400	1	143	149	0	47	0	122	0.825972679999722	1	0	0
401	1	84	97	1	46	0	122	1.0829906429999	1	0	0
402	1	123	64	0	43	0	122	0.838200993999635	1	0	0
403	1	49	64	0	41	0	122	1.90740492899931	1	0	0
404	1	2	59	0	38	0	122	0.979831462999755	1	0	0
405	0	103	74	0	36	0	122	4.96909976300049	0	0	0
406	0	46	65	1	43	0	122	0.823798402999273	0	0	0
407	0	111	142	0	51	0	122	2.17164885700004	0	0	0
408	1	78	137	0	57	0	122	0.786084129999836	1	0	0
409	1	108	72	0	55	0	122	0.983681186000467	1	0	0
410	1	57	47	1	53	0	122	1.1251349310005	1	0	0
411	0	114	134	0	51	0	120	1.29273369800012	1	0	0
412	1	21	82	1	49	0	122	1.18263540099997	1	0	0
413	0	44	136	0	47	0	122	2.5320216450009	0	0	0
414	0	28	150	0	53	0	122	5.98070106500018	0	0	0
415	1	150	27	0	59	0	122	0.929873398000382	1	0	0
416	0	83	22	1	57	0	120	1.68998920700051	1	0	0
417	1	68	134	1	55	0	122	1.13935978900008	1	0	0
418	1	38	80	1	53	0	122	1.96125432999997	1	0	0
419	0	56	138	0	52	0	122	3.2099093730003	0	0	0
420	0	35	144	1	57	0	122	2.66203594099989	0	0	0
421	1	144	92	1	62	0	122	1.46440609299952	1	0	0
422	0	67	125	0	60	0	120	1.68359057299949	1	0	0
423	0	80	28	0	59	0	122	2.25302193300013	0	0	0
424	1	148	61	1	64	0	120	4.41484521100028	0	0	0
425	0	55	13	1	68	0	120	1.25192038100067	1	0	0
426	0	140	109	0	67	0	120	1.31137564900018	1	0	0
427	0	137	19	1	65	0	120	2.43951902299978	1	0	0
428	1	23	47	1	64	0	122	3.65078170000015	1	0	0
429	1	62	54	0	62	0	122	0.830185367999547	1	0	0
430	0	86	50	0	61	0	120	1.13104769199981	1	0	0
431	0	57	31	1	59	0	120	2.42362642199987	1	0	0
432	0	27	24	1	58	0	120	1.16658691999965	1	0	0
433	1	65	94	1	57	0	122	1.06864848699934	1	0	0
434	1	83	15	0	55	0	122	1.45471135599928	1	0	0
435	1	14	72	1	54	0	120	2.45704879799996	0	0	0
436	1	38	29	1	58	0	120	4.89208531799977	0	0	0
437	1	82	121	1	62	0	122	1.20530873699954	1	0	0
438	0	32	113	0	61	0	120	1.99516545000006	1	0	0
439	0	126	143	0	59	0	120	3.91255023300073	1	0	0
440	0	139	68	1	58	0	120	3.1368555909994	1	0	0
441	0	57	137	0	57	0	120	1.06190194899955	1	0	0
442	1	25	41	1	55	0	120	5.3627109250001	0	0	0
443	0	102	8	1	59	0	120	1.44968878500003	1	0	0
444	1	86	95	1	58	0	122	1.38857228599954	1	0	0
445	1	13	81	1	57	0	122	2.69847586200012	1	0	0
446	1	53	46	0	56	0	122	2.53137934400002	1	0	0
447	0	87	150	0	55	0	122	1.09095872599937	0	0	0
448	1	57	73	0	58	0	122	1.08449133900012	1	0	0
449	1	75	92	0	57	0	122	1.57344375400044	1	0	0
450	1	81	116	0	56	0	120	2.69144362499992	0	0	0
451	1	107	37	0	59	0	122	0.797669546000179	1	0	0
452	1	74	62	0	58	0	122	1.14673331799986	1	0	0
453	0	140	36	1	57	0	122	1.20903730300051	0	0	0
454	0	75	11	0	60	0	120	0.997705555999346	1	0	0
455	0	65	131	1	59	0	122	2.38621259999945	0	0	0
456	1	49	27	1	62	0	122	1.55979912900057	1	0	0
457	0	24	29	1	61	0	120	0.830437475000508	1	0	0
458	0	105	49	0	60	0	120	3.29782530800003	1	0	0
459	0	96	110	0	59	0	120	0.955367724999633	1	0	0
460	0	77	124	1	58	0	120	2.58660474200042	1	0	0
461	1	116	145	0	57	0	120	1.13585061699996	0	0	0
462	0	97	36	0	60	0	120	1.73547039599998	1	0	0
463	1	113	14	0	59	0	122	1.3186165799998	1	0	0
464	0	80	86	0	58	0	120	2.67130315000031	1	0	0
465	0	58	50	0	57	0	120	2.20957046399963	1	0	0
466	0	131	38	1	56	0	120	1.74975467399963	1	0	0
467	0	125	12	0	55	0	122	0.83703989300011	0	0	0
468	1	16	48	0	58	0	122	1.16643891599961	1	0	0
469	1	5	111	1	57	0	122	0.935287639999842	1	0	0
470	0	64	21	0	56	0	122	1.81510985200021	0	0	0
471	0	134	18	0	59	0	122	2.16357368100034	0	0	0
472	0	103	10	1	62	0	122	1.81004889300038	0	0	0
473	0	66	68	1	65	0	122	3.16636394600027	0	0	0
474	1	130	50	0	68	0	122	1.14051738399939	1	0	0
475	1	130	85	0	67	0	122	0.795533066999269	1	0	0
476	1	4	127	1	66	0	122	6.04097120900042	1	0	0
477	0	131	128	0	65	0	120	1.05322978999993	1	0	0
478	0	81	40	1	64	0	120	1.1482790099999	1	0	0
479	0	1	147	0	63	0	120	1.0857781120003	1	0	0
480	0	141	68	1	62	0	120	1.26462422199984	1	0	0
481	0	118	142	1	61	0	120	0.897910652999599	1	0	0
482	1	91	82	0	60	0	120	0.971251841999219	0	0	0
483	0	113	99	1	63	0	120	1.12937944700025	1	0	0
484	1	73	123	0	62	0	122	0.953417194999929	1	0	0
485	1	73	1	1	61	0	122	2.8803824659999	1	0	0
486	0	121	145	1	60	0	120	1.51460083499933	1	0	0
487	1	80	10	1	59	0	122	0.963228950000484	1	0	0
488	1	74	140	1	59	0	120	1.88948856200022	0	0	0
489	0	41	52	1	61	0	120	2.89903601100013	1	0	0
490	1	136	32	0	60	0	122	1.59564414400029	1	0	0
491	0	38	14	1	59	0	120	1.72183264200066	1	0	0
492	0	24	122	0	59	0	120	1.00130294799965	1	0	0
493	0	18	63	1	58	0	120	2.3107617579999	1	0	0
494	1	52	149	0	57	0	120	1.67049460199996	0	0	0
495	1	60	60	1	59	0	122	1.82515014199998	1	0	0
496	1	44	128	0	59	0	122	1.08522868799992	1	0	0
497	0	35	120	0	58	0	120	1.64675261399952	1	0	0
498	1	122	89	0	57	0	122	1.73860416400021	1	0	0
499	0	9	80	1	56	0	120	7.24969588099975	1	0	0
500	1	79	93	0	56	0	122	0.988476546999664	1	0	0
