Trial	Gender_Face1	Face1_nb	Face2_nb	Right_left_flip	Nb_Bubbles	Overlap_Target	Response	RT	Accuracy	Simi2Target	Trial_Reward
1	0	61	8	1	40	0	120	0.907184330979362	1	0	0
2	0	6	138	0	37	0	120	1.05332954297774	1	0	0
3	0	97	38	1	35	0	120	1.46514379093423	1	0	0
4	1	55	52	0	32	0	122	0.702172645018436	1	0	0
5	1	93	130	1	30	0	122	1.01919215603266	1	0	0
6	1	75	89	1	27	0	120	1.63062114897184	0	0	0
7	1	30	95	0	35	0	120	1.058696357999	0	0	0
8	1	93	135	0	42	0	122	0.972714418894611	1	0	0
9	1	29	62	0	40	0	120	1.16352826403454	0	0	0
10	1	2	114	1	46	0	122	1.25840512802824	1	0	0
11	1	60	132	1	44	0	122	0.772607458056882	1	0	0
12	0	41	140	1	42	0	120	2.73858832591213	1	0	0
13	0	148	30	1	40	0	120	1.16228230891284	1	0	0
14	1	110	68	1	38	0	122	1.83325620007236	1	0	0
15	0	4	77	1	37	0	120	1.03623387101106	1	0	0
16	1	93	68	1	35	0	122	0.896032393095084	1	0	0
17	0	53	51	1	33	0	120	1.72940232791007	1	0	0
18	1	82	11	1	31	0	122	0.901651659980416	1	0	0
19	1	105	137	1	29	0	122	0.873507124022581	1	0	0
20	1	40	99	1	27	0	120	1.05151644803118	0	0	0
21	0	18	59	0	33	0	122	1.81471644900739	0	0	0
22	1	131	71	1	38	0	122	0.946438953047618	1	0	0
23	1	6	75	1	37	0	122	0.85799650195986	1	0	0
24	0	8	90	1	35	0	120	1.55653873004485	1	0	0
25	1	10	147	0	33	0	122	1.02741449000314	1	0	0
26	1	72	150	0	31	0	122	1.38314112799708	1	0	0
27	0	43	87	1	30	0	120	1.66117001895327	1	0	0
28	0	42	67	0	28	0	120	1.39952998096123	1	0	0
29	0	46	77	1	27	0	120	0.932229969999753	1	0	0
30	1	108	118	0	25	0	122	1.27297880302649	1	0	0
31	1	41	53	0	23	0	120	1.12182438804302	0	0	0
32	0	132	70	0	28	0	120	1.10234579804819	1	0	0
33	0	79	115	1	27	0	120	1.08691288891714	1	0	0
34	0	65	118	1	25	0	120	1.2164527149871	1	0	0
35	1	68	95	0	24	0	122	0.820955783012323	1	0	0
36	0	91	23	0	22	0	120	0.8645238019526	1	0	0
37	0	8	105	0	21	0	120	0.739818261004984	1	0	0
38	1	14	119	1	19	0	120	1.03461303003132	0	0	0
39	1	2	36	0	23	0	120	2.25394746998791	0	0	0
40	1	143	28	1	28	0	122	1.48482168500777	1	0	0
41	1	57	64	1	26	0	120	1.63082215900067	0	0	0
42	0	114	7	0	30	0	122	2.03812724398449	0	0	0
43	0	51	109	0	34	0	120	0.745318071916699	1	0	0
44	1	57	118	0	33	0	122	1.12054334697314	1	0	0
45	0	40	144	1	32	0	120	1.28863029601052	1	0	0
46	1	118	2	0	30	0	122	1.49764773307834	1	0	0
47	0	102	129	1	29	0	120	1.34672716900241	1	0	0
48	0	106	108	0	28	0	120	1.32218394102529	1	0	0
49	0	56	100	1	27	0	120	1.59006651700474	1	0	0
50	0	8	34	0	25	0	122	1.20751846604981	0	0	0
51	1	109	91	1	29	0	122	0.907413790002465	1	0	0
52	0	132	49	0	28	0	120	1.17641896393616	1	0	0
53	1	112	122	1	27	0	122	1.31508109299466	1	0	0
54	0	35	12	0	25	0	120	0.834835079032928	1	0	0
55	1	98	85	0	24	0	122	1.56656360707711	1	0	0
56	1	26	12	1	23	0	120	1.80524651694577	0	0	0
57	1	138	115	0	26	0	122	0.697594151017256	1	0	0
58	1	49	146	0	25	0	122	0.842996991006657	1	0	0
59	0	4	115	1	24	0	120	1.83021487900987	1	0	0
60	0	145	6	1	23	0	120	1.09847642597742	1	0	0
61	1	1	94	1	22	0	122	0.85962003399618	1	0	0
62	0	149	137	1	21	0	122	0.741535164997913	0	0	0
63	0	11	53	0	24	0	122	0.940867437049747	0	0	0
64	0	81	41	0	27	0	120	1.14406613691244	1	0	0
65	1	115	60	1	26	0	122	1.45155659702141	1	0	0
66	0	38	100	0	25	0	122	1.49388520605862	0	0	0
67	0	16	40	0	28	0	120	1.80798452300951	1	0	0
68	0	111	124	1	27	0	120	0.716570060001686	1	0	0
69	1	33	110	0	26	0	122	0.868017717031762	1	0	0
70	1	93	145	1	25	0	122	0.97466309601441	1	0	0
71	0	101	83	1	24	0	120	1.28481870400719	1	0	0
72	1	102	41	0	23	0	122	1.5582086739596	1	0	0
73	0	44	96	1	22	0	120	1.45322618901264	1	0	0
74	0	121	118	0	21	0	120	1.57623591693118	1	0	0
75	0	74	145	1	20	0	120	1.04622052004561	1	0	0
76	1	51	83	0	19	0	120	1.99753770290408	0	0	0
77	1	112	11	1	22	0	122	1.30985861003865	1	0	0
78	1	32	31	1	21	0	120	1.01466793089639	0	0	0
79	1	40	34	0	24	0	120	1.7865376630798	0	0	0
80	0	126	116	0	27	0	120	2.15215511806309	1	0	0
81	1	84	82	1	26	0	122	0.79881586600095	1	0	0
82	0	117	47	1	25	0	122	0.79556252900511	0	0	0
83	1	58	134	1	27	0	120	1.77719666203484	0	0	0
84	0	102	102	1	30	0	122	2.43074186402373	0	0	0
85	0	20	22	1	33	0	120	1.5705475009745	1	0	0
86	1	136	24	0	32	0	120	1.25726384192239	0	0	0
87	0	59	142	0	35	0	122	2.50004906603135	0	0	0
88	1	60	81	1	37	0	122	0.988869813038036	1	0	0
89	1	141	115	1	37	0	120	2.86625491804443	0	0	0
90	0	17	115	1	39	0	120	0.98766738793347	1	0	0
91	1	131	144	1	38	0	122	3.20601750898641	1	0	0
92	0	16	81	0	37	0	120	0.89422039699275	1	0	0
93	0	118	88	1	36	0	120	0.863346935948357	1	0	0
94	0	150	98	1	36	0	120	0.786013608099893	1	0	0
95	0	85	110	0	35	0	120	0.871632450958714	1	0	0
96	0	114	136	1	34	0	120	0.889658981002867	1	0	0
97	0	71	67	1	33	0	120	1.0106350700371	1	0	0
98	1	53	48	1	32	0	122	2.44697721605189	1	0	0
99	0	101	34	1	31	0	120	1.06684186600614	1	0	0
100	1	124	1	1	31	0	122	2.42891601205338	1	0	0
101	0	66	99	1	31	0	120	1.46027827204671	1	0	0
102	0	127	120	1	28	0	120	0.979730981984176	1	0	0
103	0	37	34	0	26	0	120	0.922381613985635	1	0	0
104	1	78	129	1	23	0	122	0.841353997006081	1	0	0
105	1	99	121	0	21	0	122	0.596848583896644	1	0	0
106	1	5	76	0	18	0	120	1.84079609403852	0	0	0
107	1	107	45	0	26	0	122	0.884365246049128	1	0	0
108	1	51	107	0	24	0	122	0.797755012987182	1	0	0
109	1	117	30	1	22	0	122	2.20322116895113	1	0	0
110	0	67	60	1	19	0	122	1.5148553759791	0	0	0
111	1	40	69	0	26	0	122	1.75242954702117	1	0	0
112	1	141	118	1	24	0	120	1.46295279101469	0	0	0
113	1	136	82	1	31	0	120	1.14536041300744	0	0	0
114	0	77	57	0	37	0	120	1.84523144899867	1	0	0
115	1	130	93	0	35	0	120	1.57638001500163	0	0	0
116	0	14	62	0	41	0	120	1.05073357105721	1	0	0
117	1	92	46	1	39	0	122	1.0136991100153	1	0	0
118	0	143	23	0	37	0	120	1.56987022398971	1	0	0
119	1	118	51	1	35	0	120	1.7443450599676	0	0	0
120	0	21	37	0	41	0	120	1.30446113005746	1	0	0
121	0	49	110	1	39	0	120	0.953315622988157	1	0	0
122	0	116	80	1	37	0	120	1.03929499792866	1	0	0
123	0	91	43	0	36	0	120	1.0347701869905	1	0	0
124	1	144	27	0	34	0	120	5.26978541107383	0	0	0
125	1	86	51	1	39	0	122	0.996248818933964	1	0	0
126	1	37	102	0	38	0	122	2.69380030897446	1	0	0
127	1	1	87	0	36	0	122	0.74359577789437	1	0	0
128	1	141	145	1	35	0	122	0.925623390008695	1	0	0
129	0	31	78	0	33	0	120	1.45471164199989	1	0	0
130	1	123	14	0	31	0	122	0.897465624031611	1	0	0
131	1	50	134	1	30	0	120	1.41081599600147	0	0	0
132	0	149	40	1	35	0	120	1.30699545994867	1	0	0
133	1	51	19	1	33	0	122	1.52075341506861	1	0	0
134	0	117	47	1	32	0	120	2.15603339497466	1	0	0
135	0	66	102	0	30	0	120	1.31491524504963	1	0	0
136	1	9	124	1	29	0	120	2.01532594894525	0	0	0
137	0	24	9	1	33	0	120	1.0669554839842	1	0	0
138	0	130	45	0	32	0	120	0.89268541499041	1	0	0
139	0	64	60	0	30	0	120	1.55825343495235	1	0	0
140	0	120	39	1	29	0	120	1.45343299594242	1	0	0
141	0	88	69	1	28	0	120	1.70423052902333	1	0	0
142	0	105	62	1	26	0	120	0.888998307986185	1	0	0
143	1	67	65	1	25	0	122	1.35390012001153	1	0	0
144	1	143	38	0	24	0	120	3.72063042700756	0	0	0
145	0	119	97	0	28	0	120	0.928490720922127	1	0	0
146	1	147	134	0	27	0	122	1.82487395801581	1	0	0
147	0	24	56	1	25	0	120	1.0286955969641	1	0	0
148	1	148	9	1	24	0	120	1.6571285329992	0	0	0
149	0	139	67	1	28	0	122	1.06782602099702	0	0	0
150	0	58	14	1	31	0	120	1.26218989107292	1	0	0
151	1	135	29	0	30	0	122	1.36151702096686	1	0	0
152	0	22	134	0	29	0	120	1.82366827595979	1	0	0
153	0	54	73	1	28	0	120	0.675738738034852	1	0	0
154	0	148	39	1	27	0	120	0.854088127962314	1	0	0
155	1	109	90	1	25	0	120	0.848748957039788	0	0	0
156	0	40	113	0	29	0	120	0.708304197061807	1	0	0
157	1	132	122	0	28	0	122	1.91714512894396	1	0	0
158	1	37	2	0	27	0	120	0.937219253042713	0	0	0
159	1	81	1	1	30	0	122	1.01972858095542	1	0	0
160	0	74	109	0	29	0	122	2.87245019897819	0	0	0
161	1	16	18	1	32	0	120	0.898167585022748	0	0	0
162	0	132	41	1	35	0	120	0.835298344958574	1	0	0
163	1	81	29	1	34	0	122	1.18273838399909	1	0	0
164	0	7	92	1	33	0	120	0.908298954018392	1	0	0
165	1	51	2	0	32	0	122	1.55175691598561	1	0	0
166	0	143	5	1	31	0	120	0.972005303017795	1	0	0
167	1	100	74	1	30	0	120	2.59432123298757	0	0	0
168	0	130	30	1	33	0	120	0.751203570980579	1	0	0
169	1	6	104	0	32	0	122	1.33479935105424	1	0	0
170	0	148	136	1	31	0	120	0.758403485058807	1	0	0
171	0	2	146	1	30	0	120	1.07654609298334	1	0	0
172	1	92	2	1	29	0	122	0.814951019012369	1	0	0
173	1	40	54	1	28	0	120	1.17922670999542	0	0	0
174	0	143	113	1	31	0	122	0.944848368060775	0	0	0
175	0	79	30	1	34	0	120	0.967209366965108	1	0	0
176	0	66	60	0	33	0	120	1.35857442498673	1	0	0
177	1	26	90	1	32	0	120	1.13277256803121	0	0	0
178	0	81	109	1	35	0	120	0.724785678088665	1	0	0
179	0	149	141	1	34	0	120	0.660374712082557	1	0	0
180	1	47	94	0	33	0	122	0.967164234025404	1	0	0
181	0	32	34	0	32	0	122	3.30140561400913	0	0	0
182	0	28	6	0	35	0	120	1.20561229495797	1	0	0
183	1	102	21	0	34	0	120	1.19474544306286	0	0	0
184	0	2	31	1	36	0	120	0.712210270925425	1	0	0
185	0	50	51	0	36	0	120	1.03310948901344	1	0	0
186	0	9	124	1	35	0	120	0.676095293951221	1	0	0
187	0	60	19	1	34	0	120	0.998468244913965	1	0	0
188	1	73	57	0	33	0	122	1.81919907405972	1	0	0
189	0	64	146	0	32	0	120	0.831259811995551	1	0	0
190	1	75	132	0	31	0	122	1.29075595899485	1	0	0
191	0	146	84	1	30	0	122	1.603591750958	0	0	0
192	0	102	89	1	33	0	120	0.732134768972173	1	0	0
193	0	90	24	1	32	0	120	0.744772032951005	1	0	0
194	0	49	114	0	31	0	122	1.46428498998284	0	0	0
195	1	99	135	1	34	0	122	0.826078132959083	1	0	0
196	1	138	109	0	33	0	122	0.877824812894687	1	0	0
197	1	75	113	0	32	0	122	1.29603543097619	1	0	0
198	0	6	24	0	31	0	120	1.13707156397868	1	0	0
199	0	60	23	1	31	0	120	2.48880114906933	1	0	0
200	1	116	7	1	30	0	122	1.81781504792161	1	0	0
201	1	147	137	1	30	0	122	2.88108820398338	1	0	0
202	0	78	33	1	27	0	120	1.90687222999986	1	0	0
203	1	95	129	0	25	0	122	0.916478986968286	1	0	0
204	1	40	72	0	22	0	122	1.73630099999718	1	0	0
205	0	97	72	1	20	0	120	0.819554953020997	1	0	0
206	0	88	137	1	17	0	122	4.00314808206167	0	0	0
207	0	63	40	0	25	0	122	1.12797934398986	0	0	0
208	0	35	138	1	32	0	120	1.32858335401397	1	0	0
209	1	2	92	0	30	0	120	2.76019960094709	0	0	0
210	1	4	118	0	36	0	120	0.774961497052573	0	0	0
211	1	98	81	1	43	0	122	1.12547412398271	1	0	0
212	1	26	71	0	41	0	120	1.30125529807992	0	0	0
213	0	147	114	1	47	0	120	1.03042259905487	1	0	0
214	1	53	5	0	45	0	120	0.830302172922529	0	0	0
215	1	55	77	0	50	0	122	1.55022451502737	1	0	0
216	1	27	16	0	49	0	122	0.733524212031625	1	0	0
217	0	121	48	1	47	0	120	2.42098186805379	1	0	0
218	1	129	87	1	45	0	122	0.905200771056116	1	0	0
219	1	144	62	1	44	0	122	0.696840329910628	1	0	0
220	1	7	141	1	42	0	122	0.618720178026706	1	0	0
221	1	60	103	0	40	0	122	0.67897261295002	1	0	0
222	1	73	116	1	39	0	122	0.625296860001981	1	0	0
223	0	61	40	0	37	0	122	2.55488263396546	0	0	0
224	0	71	38	1	42	0	122	1.29962695902213	0	0	0
225	1	20	51	0	47	0	122	0.644461037009023	1	0	0
226	1	20	116	1	45	0	122	0.680236198939383	1	0	0
227	1	81	34	0	43	0	120	3.39282125595491	0	0	0
228	0	126	35	1	48	0	120	0.886492194025777	1	0	0
229	1	38	68	1	46	0	122	1.47176536393818	1	0	0
230	0	1	126	1	45	0	120	0.826107137021609	1	0	0
231	0	73	10	1	44	0	120	1.72641714802012	1	0	0
232	1	35	30	1	42	0	120	0.66976038296707	0	0	0
233	0	75	89	0	46	0	120	0.712454118067399	1	0	0
234	0	85	147	1	45	0	120	0.576993134105578	1	0	0
235	0	56	146	1	44	0	120	1.32667642703746	1	0	0
236	1	44	145	1	42	0	120	0.901799534098245	0	0	0
237	1	28	97	0	46	0	122	0.679544049082324	1	0	0
238	0	75	3	1	45	0	120	0.6870680549182	1	0	0
239	0	80	113	1	44	0	120	0.97088967403397	1	0	0
240	0	1	54	1	42	0	120	0.644634539959952	1	0	0
241	0	84	56	1	41	0	120	0.651404338073917	1	0	0
242	0	85	123	0	40	0	120	0.6633689859882	1	0	0
243	0	29	125	0	39	0	120	0.609371140017174	1	0	0
244	1	26	126	1	37	0	122	1.4709781659767	1	0	0
245	0	124	24	0	36	0	120	0.841589752002619	1	0	0
246	0	1	55	1	35	0	120	0.75661659007892	1	0	0
247	0	22	114	1	34	0	120	3.1389737999998	1	0	0
248	0	8	7	1	33	0	120	0.719025988015346	1	0	0
249	0	84	86	1	32	0	120	0.626961115980521	1	0	0
250	1	91	98	0	30	0	122	0.77532263903413	1	0	0
251	1	22	91	1	29	0	122	0.82052195398137	1	0	0
252	0	131	18	0	28	0	120	0.688814211054705	1	0	0
253	0	95	44	0	27	0	120	0.778168204938993	1	0	0
254	0	80	84	0	26	0	120	0.976733218994923	1	0	0
255	0	105	149	1	25	0	120	1.17403579398524	1	0	0
256	1	4	41	1	24	0	122	3.30009883700404	1	0	0
257	0	149	40	1	23	0	120	0.900569855002686	1	0	0
258	0	106	26	0	22	0	120	0.838391209021211	1	0	0
259	0	6	85	0	21	0	120	0.648878818959929	1	0	0
260	1	150	75	0	20	0	122	1.06788355496246	1	0	0
261	1	143	50	0	19	0	122	1.70991512492765	1	0	0
262	1	51	118	1	18	0	122	0.607134903897531	1	0	0
263	0	100	7	0	17	0	122	0.951475503039546	0	0	0
264	1	141	65	0	20	0	122	1.08224766491912	1	0	0
265	1	64	54	0	19	0	120	2.51020112307742	0	0	0
266	0	6	119	1	22	0	120	0.983454676927067	1	0	0
267	0	142	45	1	21	0	120	1.12830021197442	1	0	0
268	1	17	18	0	20	0	122	1.55311560304835	1	0	0
269	1	13	61	0	19	0	122	2.21981445094571	1	0	0
270	1	41	30	1	18	0	120	1.07568556105252	0	0	0
271	1	119	33	0	21	0	122	0.990215116064064	1	0	0
272	0	101	13	0	20	0	120	0.874847288010642	1	0	0
273	1	88	79	0	19	0	120	1.6217855240684	0	0	0
274	1	48	8	1	22	0	120	0.975733136059716	0	0	0
275	0	139	1	1	24	0	120	0.91047638899181	1	0	0
276	0	85	69	1	24	0	120	0.926347626955248	1	0	0
277	0	100	78	1	23	0	120	1.06251460406929	1	0	0
278	0	99	4	1	22	0	122	1.95265318499878	0	0	0
279	1	114	32	0	25	0	122	0.759841815102845	1	0	0
280	0	62	93	0	24	0	120	0.92592849698849	1	0	0
281	0	61	77	0	23	0	120	0.870266051962972	1	0	0
282	1	132	56	0	22	0	122	0.759090621955693	1	0	0
283	0	99	89	0	21	0	120	0.990558597026393	1	0	0
284	0	61	150	0	20	0	122	1.17237943899818	0	0	0
285	1	54	124	0	23	0	122	0.714346555061638	1	0	0
286	0	34	57	1	22	0	120	0.866805525962263	1	0	0
287	0	19	121	0	21	0	122	0.82913574099075	0	0	0
288	0	147	21	1	23	0	122	1.20131100795697	0	0	0
289	0	30	120	0	26	0	120	0.926400123047642	1	0	0
290	1	76	138	0	25	0	122	1.25365163898095	1	0	0
291	0	72	145	0	24	0	120	0.720877874991857	1	0	0
292	0	118	28	1	23	0	120	0.888889388064854	1	0	0
293	0	46	128	1	23	0	120	0.618228722014464	1	0	0
294	1	126	15	1	22	0	122	0.862347707967274	1	0	0
295	1	85	131	0	21	0	122	1.02461074898019	1	0	0
296	0	69	46	0	20	0	122	1.42847854504362	0	0	0
297	1	15	149	0	23	0	120	0.752877018996514	0	0	0
298	0	51	18	1	25	0	120	2.73519605805632	1	0	0
299	0	19	95	0	24	0	122	2.71101624006405	0	0	0
300	1	80	26	0	26	0	122	0.583570702001452	1	0	0
