Trial	Gender_Face1	Face1_nb	Face2_nb	Right_left_flip	Nb_Bubbles	Overlap_Target	Response	RT	Accuracy	Simi2Target	Trial_Reward
1	1	125	50	0	73	0	122	2.29241028300021	1	0	0
2	1	75	144	0	69	0	122	0.661153582972474	1	0	0
3	1	89	116	0	64	0	122	0.848185261012986	1	0	0
4	1	54	73	0	60	0	122	0.767155962064862	1	0	0
5	1	148	10	0	56	0	122	0.700336438952945	1	0	0
6	0	19	44	0	52	0	120	2.31179289205465	1	0	0
7	1	88	135	1	47	0	122	1.59949760697782	1	0	0
8	0	14	68	0	43	0	122	2.88553896301892	0	0	0
9	1	17	41	0	56	0	120	0.847224042052403	0	0	0
10	0	88	20	1	68	0	120	4.60299352603033	1	0	0
11	1	149	68	1	64	0	120	0.727829545969144	0	0	0
12	0	125	111	1	75	0	120	1.24849110399373	1	0	0
13	1	31	66	0	72	0	122	2.83583514404017	1	0	0
14	1	147	29	1	68	0	122	1.08772343990859	1	0	0
15	1	40	98	1	65	0	120	2.5700213429518	0	0	0
16	0	111	38	1	75	0	120	7.32799199293368	1	0	0
17	1	28	23	0	72	0	122	0.992054683971219	1	0	0
18	1	127	16	0	69	0	122	0.870048701995984	1	0	0
19	1	24	74	0	65	0	122	1.57661550003104	1	0	0
20	1	64	145	0	62	0	122	0.692441581981257	1	0	0
21	1	63	64	0	59	0	122	0.761305419960991	1	0	0
22	0	134	106	0	56	0	120	0.80829467496369	1	0	0
23	1	104	22	1	53	0	122	1.45327827695291	1	0	0
24	1	7	132	0	50	0	122	0.928405071957968	1	0	0
25	1	86	2	0	47	0	122	0.800152766983956	1	0	0
26	0	65	123	1	45	0	120	0.894113524002023	1	0	0
27	0	133	17	1	42	0	120	0.863051526015624	1	0	0
28	0	65	105	0	39	0	120	0.837294241995551	1	0	0
29	0	79	60	1	36	0	120	2.74816302501131	1	0	0
30	0	118	49	1	33	0	122	1.90772348595783	0	0	0
31	1	122	15	0	42	0	122	0.881073941010982	1	0	0
32	1	49	125	1	39	0	120	4.31907217204571	0	0	0
33	1	33	76	1	47	0	122	1.22319089900702	1	0	0
34	1	118	113	0	45	0	122	2.24343469005544	1	0	0
35	1	89	121	0	42	0	122	1.75090164504945	1	0	0
36	1	148	83	0	40	0	122	1.14252134691924	1	0	0
37	1	38	138	0	37	0	120	1.05379597598221	0	0	0
38	0	126	64	0	44	0	120	1.2811552650528	1	0	0
39	1	132	58	0	42	0	122	0.746991154970601	1	0	0
40	0	11	125	0	40	0	120	1.95091745106038	1	0	0
41	0	9	36	1	37	0	120	1.43363185203634	1	0	0
42	0	58	101	0	35	0	120	0.838257141993381	1	0	0
43	0	79	116	1	33	0	120	2.56231973902322	1	0	0
44	1	35	47	1	30	0	120	1.12857901398093	0	0	0
45	1	30	108	0	37	0	122	0.904702679952607	1	0	0
46	0	146	30	1	35	0	120	1.4944361730013	1	0	0
47	0	61	72	0	33	0	120	0.834834840963595	1	0	0
48	0	116	25	0	31	0	122	2.37460949202068	0	0	0
49	0	67	73	0	37	0	120	1.3254820459988	1	0	0
50	1	79	37	1	35	0	122	1.62965062097646	1	0	0
51	0	89	39	1	33	0	120	0.929637489956804	1	0	0
52	0	33	120	0	31	0	120	1.76188255602028	1	0	0
53	0	148	61	0	29	0	122	2.63296124699991	0	0	0
54	1	118	135	0	35	0	122	1.73278358299285	1	0	0
55	0	116	142	0	33	0	120	2.10088452405762	1	0	0
56	1	124	133	1	31	0	120	0.765978713985533	0	0	0
57	1	38	120	0	37	0	122	1.37737239594571	1	0	0
58	1	78	19	1	35	0	122	1.0669663840672	1	0	0
59	0	135	143	0	34	0	120	1.99688602797687	1	0	0
60	0	68	23	0	32	0	120	1.62691470002756	1	0	0
61	1	64	103	0	30	0	122	1.39129025302827	1	0	0
62	1	26	65	0	28	0	122	1.94925221800804	1	0	0
63	0	141	94	1	26	0	122	0.804818758973852	0	0	0
64	1	145	148	1	31	0	122	1.08234755310696	1	0	0
65	1	38	111	1	30	0	120	2.48337535001338	0	0	0
66	0	33	26	0	35	0	122	6.78161843901034	0	0	0
67	0	88	58	0	40	0	122	1.01954390993342	0	0	0
68	0	41	86	1	46	0	120	0.664593227091245	1	0	0
69	1	103	97	0	44	0	120	2.29054732399527	0	0	0
70	0	2	20	0	49	0	120	0.748153047985397	1	0	0
71	0	90	47	1	48	0	120	1.13925743091386	1	0	0
72	0	23	64	0	46	0	120	0.859256976982579	1	0	0
73	1	140	121	0	44	0	122	0.806785227032378	1	0	0
74	1	109	133	1	42	0	122	0.914769544964656	1	0	0
75	0	5	106	1	41	0	120	2.00350611691829	1	0	0
76	0	96	70	0	39	0	120	0.792659795028158	1	0	0
77	0	46	102	0	38	0	120	1.49464086105581	1	0	0
78	1	147	82	0	36	0	122	2.33544058806729	1	0	0
79	1	58	79	1	34	0	122	2.31223633303307	1	0	0
80	0	130	144	1	33	0	120	1.40923679003026	1	0	0
81	1	105	71	0	31	0	120	1.08638816105668	0	0	0
82	1	48	44	1	36	0	122	2.46884247101843	1	0	0
83	0	22	49	0	34	0	120	1.78605911496561	1	0	0
84	1	107	89	1	33	0	122	1.70445529499557	1	0	0
85	1	136	61	1	32	0	122	2.21779494197108	1	0	0
86	1	142	52	0	30	0	122	1.93474585597869	1	0	0
87	1	136	56	0	29	0	122	3.03756376996171	1	0	0
88	0	27	113	1	27	0	120	1.03342525602784	1	0	0
89	0	18	54	0	26	0	122	1.64525342790876	0	0	0
90	1	124	10	0	30	0	120	1.27318107103929	0	0	0
91	0	62	146	0	34	0	120	2.50746311200783	1	0	0
92	1	126	116	1	33	0	122	0.932455106056295	1	0	0
93	1	76	22	0	31	0	122	4.32836775493342	1	0	0
94	1	136	135	1	30	0	120	1.23648984997999	0	0	0
95	0	79	95	0	34	0	120	1.74106433102861	1	0	0
96	1	30	103	0	33	0	122	2.94390998408198	1	0	0
97	1	81	49	1	32	0	122	1.17518889694475	1	0	0
98	0	74	100	1	30	0	120	2.80586131394375	1	0	0
99	0	51	28	0	29	0	120	1.08281373302452	1	0	0
100	1	85	10	1	28	0	122	1.22090655891225	1	0	0
101	1	93	136	0	28	0	120	1.88768778997473	0	0	0
102	0	139	124	0	36	0	120	0.74562939198222	1	0	0
103	1	72	121	1	34	0	120	1.62488516501617	0	0	0
104	1	47	7	0	41	0	122	0.672796106082387	1	0	0
105	1	55	21	0	39	0	122	1.00324548897333	1	0	0
106	1	27	94	0	37	0	122	0.848838762030937	1	0	0
107	0	113	43	1	34	0	122	1.62261491594836	0	0	0
108	0	91	89	0	41	0	120	0.967991966987029	1	0	0
109	1	29	108	1	39	0	122	0.647424118011259	1	0	0
110	1	129	146	0	37	0	122	0.722035686019808	1	0	0
111	0	105	87	1	35	0	120	0.819284096942283	1	0	0
112	0	143	74	1	33	0	120	1.23871861107182	1	0	0
113	1	75	110	1	31	0	122	0.915351580013521	1	0	0
114	1	112	95	0	29	0	122	1.76394393702503	1	0	0
115	0	57	99	1	27	0	120	2.41159331297968	1	0	0
116	0	104	78	0	25	0	120	2.63162976095919	1	0	0
117	1	14	44	0	23	0	122	0.708204754977487	1	0	0
118	0	135	123	0	21	0	122	3.87788797402754	0	0	0
119	1	70	144	1	27	0	122	1.51198022207245	1	0	0
120	0	124	7	0	25	0	120	0.632443820009939	1	0	0
121	1	11	120	0	23	0	122	1.12400801607873	1	0	0
122	0	83	24	0	21	0	122	1.43729052995332	0	0	0
123	0	33	37	0	27	0	120	0.856248905998655	1	0	0
124	0	109	142	0	25	0	120	1.1151454000501	1	0	0
125	0	24	132	1	23	0	122	1.48451430501882	0	0	0
126	1	26	12	0	28	0	120	4.12609943200368	0	0	0
127	1	52	90	1	33	0	122	0.694240564014763	1	0	0
128	1	123	81	0	32	0	120	0.719951413921081	0	0	0
129	1	34	80	0	37	0	122	0.640968219959177	1	0	0
130	1	21	31	1	35	0	122	1.91549525398295	1	0	0
131	1	8	133	1	34	0	122	0.956417781999335	1	0	0
132	0	41	127	0	32	0	120	1.58034098299686	1	0	0
133	1	137	31	1	31	0	120	1.50532706989907	0	0	0
134	1	18	84	1	35	0	120	2.72357309807558	0	0	0
135	1	63	114	0	39	0	122	1.98781784600578	1	0	0
136	1	120	100	1	38	0	122	0.936432145070285	1	0	0
137	0	40	4	0	37	0	120	1.11261548299808	1	0	0
138	1	93	54	0	35	0	122	1.69014875707217	1	0	0
139	0	122	67	0	34	0	122	2.33141139091458	0	0	0
140	1	21	99	0	38	0	122	1.29220827203244	1	0	0
141	0	108	34	1	37	0	120	2.03766618005466	1	0	0
142	0	114	44	0	35	0	120	1.38494885794353	1	0	0
143	0	74	37	0	34	0	120	1.12654719001148	1	0	0
144	0	63	89	1	33	0	122	1.22374542499892	0	0	0
145	0	66	40	0	37	0	120	1.13977480400354	1	0	0
146	0	132	82	1	35	0	122	0.683825033949688	0	0	0
147	1	51	101	1	39	0	122	0.82171508402098	1	0	0
148	0	47	3	1	38	0	120	1.17698524403386	1	0	0
149	0	46	126	1	37	0	120	0.991555688087828	1	0	0
150	0	48	32	1	35	0	120	2.22932794608641	1	0	0
151	1	25	120	1	34	0	120	2.52988123008981	0	0	0
152	1	4	33	1	38	0	122	1.50550414202735	1	0	0
153	0	59	10	1	37	0	122	1.85876176692545	0	0	0
154	1	62	120	0	40	0	122	2.76627506804653	1	0	0
155	1	130	23	0	39	0	122	2.00460077298339	1	0	0
156	1	27	97	1	38	0	120	1.88086312799715	0	0	0
157	1	26	36	0	41	0	122	0.851059135980904	1	0	0
158	1	128	12	0	40	0	120	1.75110529304948	0	0	0
159	0	121	149	1	44	0	120	1.74234574206639	1	0	0
160	0	42	136	0	42	0	122	0.806248417007737	0	0	0
161	0	45	24	0	46	0	122	1.45053892198484	0	0	0
162	1	11	132	0	49	0	122	1.09442277008202	1	0	0
163	0	99	141	1	48	0	120	1.03966349095572	1	0	0
164	0	109	15	1	47	0	120	0.963099134969525	1	0	0
165	1	117	106	0	46	0	122	0.722064625006169	1	0	0
166	1	101	66	0	45	0	120	0.840364242903888	0	0	0
167	1	59	25	1	48	0	122	9.45965337392408	1	0	0
168	0	83	48	0	47	0	122	0.689490086981095	0	0	0
169	0	50	129	0	50	0	120	0.604103044024669	1	0	0
170	0	67	87	1	49	0	120	0.936017823056318	1	0	0
171	0	136	23	1	48	0	122	1.84902476100251	0	0	0
172	1	12	85	0	51	0	122	1.00353857199661	1	0	0
173	1	88	21	0	50	0	122	0.78501888399478	1	0	0
174	1	99	127	1	49	0	122	1.16004616604187	1	0	0
175	0	37	136	1	48	0	120	1.33346803707536	1	0	0
176	0	34	23	1	47	0	120	1.34990391007159	1	0	0
177	0	59	75	1	46	0	120	0.804419007967226	1	0	0
178	1	44	76	1	45	0	120	0.890192845952697	0	0	0
179	1	59	18	1	48	0	122	1.43579533696175	1	0	0
180	0	52	69	1	47	0	120	1.72740360198077	1	0	0
181	1	3	31	1	46	0	120	2.16008162801154	0	0	0
182	1	102	145	0	49	0	122	1.09495089494158	1	0	0
183	0	59	147	0	48	0	120	0.752947501954623	1	0	0
184	1	125	75	1	47	0	120	1.78394471493084	0	0	0
185	0	85	32	0	50	0	120	0.718098146026023	1	0	0
186	0	132	22	1	49	0	122	2.21433195099235	0	0	0
187	0	98	111	1	52	0	120	2.6431661429815	1	0	0
188	1	121	15	0	51	0	122	1.04676868300885	1	0	0
189	1	55	102	0	50	0	122	1.01814683596604	1	0	0
190	0	142	82	1	49	0	120	1.47945035703015	1	0	0
191	1	111	112	0	48	0	122	1.36951782903634	1	0	0
192	1	70	140	0	47	0	122	2.44038319191895	1	0	0
193	0	70	140	1	46	0	120	2.73962107300758	1	0	0
194	0	15	91	1	45	0	120	1.28277525992598	1	0	0
195	1	98	16	1	45	0	122	1.36516372906044	1	0	0
196	0	76	148	1	44	0	120	1.10828640498221	1	0	0
197	1	109	51	1	43	0	120	1.01381967205089	0	0	0
198	0	20	17	0	45	0	120	0.850103381089866	1	0	0
199	1	78	62	1	44	0	122	0.868899244931526	1	0	0
200	1	35	130	0	44	0	122	2.10332097893115	1	0	0
201	1	103	87	1	43	0	122	0.881917099934071	1	0	0
202	1	33	68	1	40	0	122	4.044369500014	1	0	0
203	0	57	27	0	38	0	120	1.24688810098451	1	0	0
204	1	86	40	0	35	0	122	1.11070712504443	1	0	0
205	1	21	61	1	33	0	122	1.74328614899423	1	0	0
206	0	65	117	0	30	0	120	1.03991207794752	1	0	0
207	1	111	129	0	28	0	120	1.41846695204731	0	0	0
208	1	96	145	0	35	0	120	1.00764976395294	0	0	0
209	1	10	25	1	43	0	122	0.732718740939163	1	0	0
210	1	25	44	1	40	0	120	1.38955238997005	0	0	0
211	0	33	23	1	47	0	120	1.09881539398339	1	0	0
212	0	86	26	0	45	0	120	1.82766014500521	1	0	0
213	1	44	8	1	43	0	122	2.9201098929625	1	0	0
214	0	30	2	0	41	0	120	1.1281983780209	1	0	0
215	0	94	57	0	39	0	120	1.66468582407106	1	0	0
216	0	5	36	1	37	0	120	1.70826359698549	1	0	0
217	0	10	29	1	35	0	120	2.09263286995701	1	0	0
218	1	98	67	0	33	0	122	0.853655650047585	1	0	0
219	1	23	53	0	31	0	120	1.96101491199806	0	0	0
220	1	139	41	1	37	0	122	0.872389969066717	1	0	0
221	1	88	23	1	35	0	122	2.97817988600582	1	0	0
222	1	22	48	1	34	0	122	0.704185434966348	1	0	0
223	1	84	41	1	32	0	122	0.754451073938981	1	0	0
224	0	68	146	0	30	0	120	0.616909299977124	1	0	0
225	1	33	58	0	28	0	122	1.01295135205146	1	0	0
226	0	85	32	0	27	0	120	0.906541313044727	1	0	0
227	1	112	142	0	25	0	122	1.61983182805125	1	0	0
228	0	60	54	0	23	0	120	1.20753692102153	1	0	0
229	0	126	111	1	22	0	120	1.50066141004208	1	0	0
230	0	94	64	0	20	0	122	2.01433050597552	0	0	0
231	1	136	123	1	25	0	120	2.03508942492772	0	0	0
232	1	104	149	1	30	0	120	1.4314778650878	0	0	0
233	1	50	56	0	34	0	120	1.84330999804661	0	0	0
234	0	61	103	0	39	0	120	2.7831473069964	1	0	0
235	0	29	40	1	38	0	120	6.42896188597661	1	0	0
236	1	69	125	0	36	0	122	2.08059257699642	1	0	0
237	0	138	118	1	35	0	122	2.90665880695451	0	0	0
238	0	98	9	1	39	0	122	2.69197640090715	0	0	0
239	1	15	137	0	43	0	122	9.221486410941	1	0	0
240	1	1	55	0	42	0	122	4.96101926802658	1	0	0
241	0	124	101	0	41	0	120	1.34401394298766	1	0	0
242	0	118	122	1	39	0	122	1.1443775659427	0	0	0
243	1	125	114	1	43	0	120	1.43635074503254	0	0	0
244	0	119	106	0	47	0	122	1.58765965106431	0	0	0
245	0	103	86	0	52	0	122	2.38581456104293	0	0	0
246	1	73	32	0	55	0	120	1.68755207397044	0	0	0
247	0	57	30	1	59	0	120	0.913924911990762	1	0	0
248	1	117	144	1	58	0	122	1.79413162800483	1	0	0
249	1	143	64	1	57	0	122	1.34503795800265	1	0	0
250	1	103	130	1	55	0	120	2.05584529193584	0	0	0
251	0	133	128	1	59	0	122	2.67494441010058	0	0	0
252	1	124	2	1	63	0	122	1.1722232470056	1	0	0
253	1	113	91	0	62	0	122	0.994901743019	1	0	0
254	0	30	145	0	61	0	120	0.903785683098249	1	0	0
255	1	17	44	1	59	0	122	1.02637509896886	1	0	0
256	1	100	4	1	58	0	122	0.869887312990613	1	0	0
257	1	106	77	1	57	0	122	3.49669912701938	1	0	0
258	1	96	32	1	56	0	122	2.37033002998214	1	0	0
259	1	101	25	0	55	0	122	1.64087416301481	1	0	0
260	1	36	15	0	54	0	122	2.56919523898978	1	0	0
261	0	40	139	0	52	0	120	0.978525124955922	1	0	0
262	0	111	37	0	51	0	122	2.51347605697811	0	0	0
263	1	66	11	1	55	0	122	1.94551868201233	1	0	0
264	1	104	33	0	53	0	122	1.23235137795564	1	0	0
265	1	105	58	1	52	0	120	1.77340812899638	0	0	0
266	1	15	58	0	56	0	120	1.28436931408942	0	0	0
267	1	15	93	0	59	0	120	1.36600769904908	0	0	0
268	0	14	49	0	62	0	120	1.31703499506693	1	0	0
269	1	110	77	1	61	0	122	2.48549024504609	1	0	0
270	1	34	83	1	60	0	120	1.6949290180346	0	0	0
271	1	3	50	1	63	0	120	1.07359756494407	0	0	0
272	1	77	31	0	66	0	120	1.57957241905387	0	0	0
273	1	28	118	1	69	0	122	1.00656520295888	1	0	0
274	0	45	3	0	68	0	120	0.742056902032346	1	0	0
275	1	105	98	1	67	0	122	1.62235874391627	1	0	0
276	0	18	116	1	66	0	120	1.64295458595734	1	0	0
277	0	93	77	1	65	0	120	1.97451713203918	1	0	0
278	1	43	78	0	64	0	120	1.90065133094322	0	0	0
279	0	32	82	1	67	0	120	2.15751690708566	1	0	0
280	0	56	130	0	66	0	120	1.31570729496889	1	0	0
281	1	85	77	0	65	0	122	0.869230066076852	1	0	0
282	0	12	25	0	64	0	122	2.10368943295907	0	0	0
283	0	29	72	0	67	0	120	2.31985643005464	1	0	0
284	0	88	91	0	66	0	120	1.72850262199063	1	0	0
285	0	67	124	0	65	0	120	2.12866636691615	1	0	0
286	0	116	116	0	65	0	120	4.22495914401952	1	0	0
287	0	72	61	1	64	0	122	2.70888551895041	0	0	0
288	1	96	95	0	66	0	122	0.882037102943286	1	0	0
289	1	23	147	0	66	0	120	3.85571063507814	0	0	0
290	0	19	54	1	68	0	120	1.17043492302764	1	0	0
291	0	45	124	0	67	0	120	1.05739219498355	1	0	0
292	1	52	64	0	66	0	122	0.675990490010008	1	0	0
293	1	134	55	0	66	0	122	0.950621821102686	1	0	0
294	0	1	33	1	65	0	122	1.00596030300949	0	0	0
295	1	36	15	1	67	0	122	1.46797723905183	1	0	0
296	0	83	88	1	67	0	122	0.918139312998392	0	0	0
297	0	74	17	0	69	0	122	2.48742803302594	0	0	0
298	0	89	52	1	72	0	120	0.856978003052063	1	0	0
299	0	144	24	1	71	0	120	0.779511954984628	1	0	0
300	1	149	113	0	70	0	120	0.985819416004233	0	0	0
