Trial	Gender_Face1	Face1_nb	Face2_nb	Right_left_flip	Nb_Bubbles	Overlap_Target	Response	RT	Accuracy	Simi2Target	Trial_Reward
1	0	13	58	0	44	0	120	0.734300740994513	0	0	0
2	0	97	127	1	53	0	120	0.590028164995601	0	0	0
3	1	130	13	1	61	0	120	0.492823702006717	1	0	0
4	0	67	44	1	58	0	122	0.599045949013089	1	0	0
5	0	26	128	0	56	0	122	0.572383853999781	1	0	0
6	0	44	12	1	53	0	120	0.698450113006402	0	0	0
7	0	93	56	1	60	0	120	0.506966262997594	0	0	0
8	1	7	40	1	67	0	120	0.64309929398587	1	0	0
9	0	90	43	0	65	0	122	0.454269413006841	1	0	0
10	0	23	149	1	63	0	122	0.585166057004244	1	0	0
11	0	85	118	1	61	0	122	0.51028353899892	1	0	0
12	1	35	40	0	59	0	122	0.550339631998213	0	0	0
13	0	125	35	0	65	0	120	0.588975798003958	0	0	0
14	0	24	27	0	71	0	122	0.481568872011849	1	0	0
15	1	133	75	0	69	0	120	0.556671853002626	1	0	0
16	0	18	89	0	67	0	120	0.843385685991962	0	0	0
17	0	46	3	1	72	0	122	0.639039900997886	1	0	0
18	1	36	141	1	71	0	120	0.641051229002187	1	0	0
19	0	12	17	1	69	0	122	0.724749467990478	1	0	0
20	0	53	2	0	67	0	122	0.515850580995902	1	0	0
21	0	41	127	0	65	0	122	0.66012514999602	1	0	0
22	0	146	45	1	63	0	120	0.622465894994093	0	0	0
23	0	91	119	1	69	0	122	0.61030410300009	1	0	0
24	1	138	21	1	67	0	120	0.590857239993056	1	0	0
25	0	55	139	0	65	0	122	0.86021210400213	1	0	0
26	0	8	126	0	64	0	120	0.70989590199315	0	0	0
27	0	100	47	1	69	0	120	1.02281925099669	0	0	0
28	0	89	143	0	74	0	122	0.442722677995334	1	0	0
29	0	56	70	0	72	0	120	0.733618009995553	0	0	0
30	0	66	65	0	77	0	122	0.836557653005002	1	0	0
31	1	109	144	1	75	0	122	0.575108083998202	0	0	0
32	0	26	37	1	80	0	122	0.573767620997387	1	0	0
33	1	78	80	1	78	0	120	0.66810727500706	1	0	0
34	1	95	141	0	77	0	120	0.781429965005373	1	0	0
35	0	134	67	0	75	0	122	0.843155906011816	1	0	0
36	0	29	102	1	74	0	122	1.07856975299364	1	0	0
37	0	19	51	1	73	0	122	0.599925006987178	1	0	0
38	0	117	38	1	71	0	120	0.660891475999961	0	0	0
39	1	87	144	1	75	0	120	0.654890748002799	1	0	0
40	0	68	57	1	74	0	122	0.561801734991604	1	0	0
41	0	67	40	0	73	0	122	0.656107949005673	1	0	0
42	0	132	36	1	71	0	122	0.889658592001069	1	0	0
43	1	88	146	1	70	0	122	0.563260046998039	0	0	0
44	1	91	33	1	74	0	122	0.585573988995748	0	0	0
45	1	131	32	0	78	0	120	1.11874698000611	1	0	0
46	1	112	86	1	77	0	120	1.04669868201017	1	0	0
47	1	33	58	0	75	0	120	0.625678388008964	1	0	0
48	0	114	133	0	74	0	122	0.63656326700584	1	0	0
49	0	103	106	1	73	0	122	0.592488655995112	1	0	0
50	0	128	34	1	72	0	122	0.621068100997945	1	0	0
51	1	17	81	1	70	0	120	0.672931558990967	1	0	0
52	1	1	142	1	69	0	120	0.522223849009606	1	0	0
53	1	33	52	1	68	0	120	0.56225782900583	1	0	0
54	1	140	95	1	67	0	120	0.53675952499907	1	0	0
55	1	114	12	0	66	0	120	0.615531071991427	1	0	0
56	1	57	80	0	65	0	120	0.627603586995974	1	0	0
57	1	73	122	1	63	0	120	0.559733945003245	1	0	0
58	1	15	30	1	62	0	120	0.654199891985627	1	0	0
59	1	101	37	1	61	0	120	0.721455703998799	1	0	0
60	0	150	35	1	60	0	122	0.799275213998044	1	0	0
61	0	143	87	0	59	0	122	0.942182165992563	1	0	0
62	1	62	113	1	58	0	120	0.892387079991749	1	0	0
63	0	103	107	0	57	0	120	1.34160238600452	0	0	0
64	0	80	49	0	60	0	122	0.548680077990866	1	0	0
65	0	87	35	1	59	0	122	1.01885162100371	1	0	0
66	0	77	126	0	58	0	122	0.607273877991247	1	0	0
67	0	64	141	0	57	0	120	0.826735427006497	0	0	0
68	1	30	143	0	60	0	120	0.973955694993492	1	0	0
69	1	122	85	1	59	0	120	0.636410637001973	1	0	0
70	0	45	42	0	58	0	122	0.92681877000723	1	0	0
71	1	2	4	0	57	0	120	0.630856720992597	1	0	0
72	1	10	142	1	56	0	120	0.746260287007317	1	0	0
73	0	149	18	1	55	0	122	0.601405205001356	1	0	0
74	0	22	32	1	54	0	122	0.981910793998395	1	0	0
75	0	21	88	1	53	0	122	0.810972275998211	1	0	0
76	0	51	66	0	52	0	122	0.647995755003649	1	0	0
77	0	87	11	1	51	0	122	0.834803584992187	1	0	0
78	0	87	59	0	50	0	120	0.910538830008591	0	0	0
79	1	69	26	1	53	0	120	0.629831241996726	1	0	0
80	1	138	12	1	52	0	120	0.730494850009563	1	0	0
81	1	47	83	0	51	0	120	0.69785706399125	1	0	0
82	1	142	61	1	50	0	120	0.619016272001318	1	0	0
83	0	112	73	1	50	0	122	0.861883573990781	1	0	0
84	1	114	25	1	49	0	120	0.584735226992052	1	0	0
85	1	103	112	0	48	0	120	0.478789345012046	1	0	0
86	0	22	108	1	47	0	122	0.615422008006135	1	0	0
87	1	66	138	1	46	0	122	0.636556601006305	0	0	0
88	0	84	68	1	49	0	122	0.704263443010859	1	0	0
89	0	141	57	0	48	0	122	1.05662196601043	1	0	0
90	1	127	81	0	47	0	120	0.77110374699987	1	0	0
91	0	73	133	1	46	0	120	0.744637390991556	0	0	0
92	1	45	119	1	49	0	120	0.631693735005683	1	0	0
93	1	41	127	1	48	0	122	1.17181105600321	0	0	0
94	0	69	76	1	50	0	122	0.672983350013965	1	0	0
95	1	58	119	0	49	0	120	0.810964107004111	1	0	0
96	1	122	131	1	49	0	120	0.830961756990291	1	0	0
97	0	23	49	1	48	0	122	0.53853349298879	1	0	0
98	0	38	119	1	47	0	120	0.738541546001215	0	0	0
99	0	68	117	0	49	0	122	0.657120253003086	1	0	0
100	1	7	26	0	49	0	120	0.531714045995614	1	0	0
101	0	141	10	1	48	0	120	0.710652888999903	0	0	0
102	1	130	150	1	56	0	120	0.733515482992516	1	0	0
103	1	100	29	0	53	0	120	0.631840175003163	1	0	0
104	1	111	29	0	51	0	122	0.547767639000085	0	0	0
105	1	34	100	0	58	0	122	0.66724660199543	0	0	0
106	0	94	112	1	65	0	122	0.580643143999623	1	0	0
107	1	48	2	0	63	0	122	0.706336559989722	0	0	0
108	1	72	27	0	69	0	120	0.594813322997652	1	0	0
109	0	5	79	0	67	0	122	0.783632683000178	1	0	0
110	0	70	86	0	65	0	120	0.765136333007831	0	0	0
111	1	35	40	0	71	0	122	0.531060042994795	0	0	0
112	1	71	42	1	76	0	120	0.659323265004787	1	0	0
113	1	12	103	0	75	0	120	0.628898693001247	1	0	0
114	0	48	50	1	73	0	122	0.825358935995609	1	0	0
115	1	73	23	1	71	0	120	0.660621810005978	1	0	0
116	1	108	101	0	70	0	122	1.06304871699831	0	0	0
117	1	47	94	1	75	0	120	0.713370655998006	1	0	0
118	0	128	12	1	73	0	122	0.650617577994126	1	0	0
119	1	126	111	1	72	0	120	0.66033861899632	1	0	0
120	0	85	25	0	70	0	122	0.607580922005582	1	0	0
121	0	20	70	0	69	0	122	0.867568307992769	1	0	0
122	0	26	110	1	67	0	122	0.725718193003559	1	0	0
123	0	138	119	0	66	0	120	0.508727691005333	0	0	0
124	0	73	30	1	70	0	122	0.845401628990658	1	0	0
125	0	115	79	1	69	0	122	0.824003749003168	1	0	0
126	0	128	78	0	67	0	122	0.571168328999192	1	0	0
127	0	10	111	1	66	0	122	0.561172177011031	1	0	0
128	0	23	101	1	64	0	122	0.599605750991032	1	0	0
129	0	93	113	0	63	0	122	0.741178227995988	1	0	0
130	1	40	138	1	62	0	120	0.78726427500078	1	0	0
131	0	121	101	1	60	0	122	0.601081692992011	1	0	0
132	0	106	29	0	59	0	122	0.670111788989743	1	0	0
133	1	74	79	0	58	0	120	0.663688970991643	1	0	0
134	0	93	101	0	56	0	120	0.649949397993623	0	0	0
135	0	43	107	1	60	0	122	0.500345491003827	1	0	0
136	1	66	37	0	59	0	122	0.909305063003558	0	0	0
137	1	57	92	1	63	0	120	0.677574788001948	1	0	0
138	1	104	66	1	61	0	120	0.894972273992607	1	0	0
139	1	109	42	0	60	0	120	0.607873111002846	1	0	0
140	0	15	30	1	59	0	122	0.548597032000544	1	0	0
141	1	55	62	1	58	0	120	0.555142430996057	1	0	0
142	1	111	111	0	57	0	120	0.665984274994116	1	0	0
143	0	7	106	0	55	0	122	0.659949656997924	1	0	0
144	1	35	86	1	54	0	122	0.590447611000855	0	0	0
145	1	55	59	0	58	0	120	0.554871457003173	1	0	0
146	1	7	106	0	56	0	120	0.554163219989277	1	0	0
147	0	53	73	0	55	0	122	0.641063350994955	1	0	0
148	1	51	150	0	54	0	120	0.651552142997389	1	0	0
149	1	28	48	1	53	0	120	0.910661691988935	1	0	0
150	0	9	65	1	52	0	120	0.80556255200645	0	0	0
151	1	22	20	1	55	0	120	0.723341607998009	1	0	0
152	0	21	143	1	54	0	122	0.714334079995751	1	0	0
153	1	114	77	0	53	0	122	0.61936895600229	0	0	0
154	0	92	24	0	56	0	122	0.831294546995196	1	0	0
155	0	81	10	0	55	0	122	0.570631675000186	1	0	0
156	0	66	118	1	54	0	122	0.633359560990357	1	0	0
157	0	3	144	1	53	0	122	0.627687297004741	1	0	0
158	1	30	140	1	52	0	120	1.02379917999497	1	0	0
159	1	116	31	0	51	0	122	0.915539535999415	0	0	0
160	1	145	36	0	54	0	120	0.531791870002053	1	0	0
161	0	144	116	0	53	0	120	1.02794876300322	0	0	0
162	1	134	122	1	56	0	120	0.695641117010382	1	0	0
163	1	100	148	0	55	0	120	0.808691013007774	1	0	0
164	0	137	138	0	54	0	122	0.54135103498993	1	0	0
165	0	7	40	0	54	0	122	0.643654476996744	1	0	0
166	1	23	102	1	53	0	120	0.704091538995272	1	0	0
167	0	83	108	1	52	0	120	0.648179501993582	0	0	0
168	1	117	91	0	54	0	122	0.739356530000805	0	0	0
169	1	15	101	1	57	0	122	0.722801485986565	0	0	0
170	0	38	16	1	60	0	122	0.690313049999531	1	0	0
171	0	82	116	1	59	0	122	0.507247585992445	1	0	0
172	1	80	142	1	58	0	120	0.620601132002776	1	0	0
173	1	41	5	1	57	0	122	0.6720499869989	0	0	0
174	0	25	71	1	60	0	122	0.537240669000312	1	0	0
175	0	60	28	0	59	0	122	0.513122932999977	1	0	0
176	0	112	67	1	58	0	122	0.552616200991906	1	0	0
177	1	3	94	1	57	0	122	1.50374354599626	0	0	0
178	0	8	112	1	60	0	122	0.59192090400029	1	0	0
179	0	138	45	1	59	0	120	0.533022839998011	0	0	0
180	1	23	109	1	62	0	120	1.10840095501044	1	0	0
181	0	30	148	1	61	0	122	0.899823124011164	1	0	0
182	1	33	83	0	60	0	122	0.877202062009019	0	0	0
183	1	34	78	0	63	0	122	0.565897100997972	0	0	0
184	0	147	7	1	65	0	122	0.604521303990623	1	0	0
185	0	46	10	0	64	0	122	0.640888936002739	1	0	0
186	1	43	70	0	64	0	120	0.644144271005644	1	0	0
187	0	52	4	1	63	0	122	0.823297523995279	1	0	0
188	0	8	138	0	62	0	122	0.579378174006706	1	0	0
189	0	59	16	1	61	0	122	0.752724922000198	1	0	0
190	1	68	103	0	60	0	120	0.943341974998475	1	0	0
191	1	130	94	0	60	0	120	0.662574615009362	1	0	0
192	1	38	65	0	59	0	122	0.800335182997514	0	0	0
193	0	2	114	1	61	0	122	0.453121861995896	1	0	0
194	1	46	4	1	60	0	122	0.768169821996707	0	0	0
195	0	36	31	0	63	0	122	0.502313794000656	1	0	0
196	1	39	26	0	62	0	122	0.694955106999259	0	0	0
197	1	36	3	0	64	0	120	0.712169023987371	1	0	0
198	0	125	87	1	63	0	120	0.896674306000932	0	0	0
199	1	79	68	0	66	0	120	0.64984312398883	1	0	0
200	0	89	105	0	65	0	122	0.532267713002511	1	0	0
201	1	134	17	1	64	0	120	0.893377575004706	1	0	0
202	0	65	139	1	61	0	120	0.501796525990358	0	0	0
203	1	143	17	0	69	0	120	0.54497604999051	1	0	0
204	0	149	141	1	67	0	120	0.609472099007689	0	0	0
205	0	29	124	0	74	0	122	0.629806562996237	1	0	0
206	1	64	25	1	72	0	120	0.689864512998611	1	0	0
207	0	54	2	0	70	0	120	0.778375730005791	0	0	0
208	0	47	142	0	77	0	122	0.512048503005644	1	0	0
209	1	108	60	0	75	0	120	0.528339953001705	1	0	0
210	1	122	7	1	73	0	120	0.51195418300631	1	0	0
211	1	12	136	0	71	0	120	0.784099488999345	1	0	0
212	1	150	104	0	69	0	120	0.677566386992112	1	0	0
213	1	6	140	0	67	0	120	0.51936296299391	1	0	0
214	0	68	146	0	65	0	122	0.703257985995151	1	0	0
215	0	38	82	1	63	0	122	0.656719905004138	1	0	0
216	1	85	150	1	61	0	120	0.562891781999497	1	0	0
217	1	12	83	1	59	0	120	0.681491769006243	1	0	0
218	0	130	41	1	57	0	122	0.506965635999222	1	0	0
219	1	27	119	1	56	0	120	0.603820388001623	1	0	0
220	1	51	125	0	54	0	122	0.808465209003771	0	0	0
221	0	52	9	1	59	0	122	0.941032528993674	1	0	0
222	0	109	6	0	57	0	122	0.660354495004867	1	0	0
223	0	81	143	0	56	0	122	0.558204843997373	1	0	0
224	1	44	111	1	54	0	120	0.778040473000146	1	0	0
225	0	109	92	1	52	0	122	0.706342735997168	1	0	0
226	0	68	112	1	51	0	122	0.554927247008891	1	0	0
227	0	88	16	1	49	0	122	0.63238751499739	1	0	0
228	1	112	135	1	48	0	120	0.772374380001565	1	0	0
229	0	82	77	0	46	0	122	0.546777551004197	1	0	0
230	1	97	36	0	44	0	122	0.665403555001831	0	0	0
231	0	51	110	1	49	0	122	0.515957266994519	1	0	0
232	0	22	95	1	48	0	122	1.07573536700511	1	0	0
233	1	87	115	1	46	0	120	0.741732066991972	1	0	0
234	0	122	3	1	45	0	120	0.956287779001286	0	0	0
235	0	37	85	0	49	0	120	0.706804029992782	0	0	0
236	0	82	120	1	53	0	122	0.515532273988356	1	0	0
237	1	15	146	0	52	0	120	0.74746843300818	1	0	0
238	0	39	77	1	51	0	120	0.594503095009713	0	0	0
239	1	74	71	0	55	0	120	0.616476385999704	1	0	0
240	1	76	78	1	54	0	120	0.852253261997248	1	0	0
241	0	39	147	0	52	0	120	0.950472504002391	0	0	0
242	1	40	58	1	56	0	120	0.677783006001846	1	0	0
243	1	138	75	0	55	0	120	1.07049239499611	1	0	0
244	1	25	143	1	54	0	122	1.27258412299852	0	0	0
245	0	16	125	0	57	0	122	0.602501219997066	1	0	0
246	0	57	70	0	56	0	122	0.863297803996829	1	0	0
247	0	95	25	0	55	0	122	0.680279381995206	1	0	0
248	0	148	128	0	54	0	122	0.881979072000831	1	0	0
249	0	42	134	0	52	0	122	1.06893882399891	1	0	0
250	0	102	61	0	51	0	122	1.17429804999847	1	0	0
251	0	136	55	0	50	0	122	0.876857662005932	1	0	0
252	1	37	30	1	49	0	120	0.998524253998767	1	0	0
253	1	144	29	0	48	0	120	1.01891469000839	1	0	0
254	0	70	32	1	47	0	122	1.04740495000442	1	0	0
255	0	127	100	0	45	0	122	1.02607385700685	1	0	0
256	0	57	16	1	44	0	120	2.26208721200237	0	0	0
257	1	73	41	1	48	0	122	0.999695587001042	0	0	0
258	1	30	75	1	51	0	120	0.948406595998676	1	0	0
259	1	129	92	0	50	0	120	0.602893349001533	1	0	0
260	1	129	77	0	49	0	120	0.736461921987939	1	0	0
261	0	96	79	0	48	0	122	0.872590230006608	1	0	0
262	1	118	91	1	47	0	122	0.874433203003719	0	0	0
263	1	12	118	1	50	0	120	0.747612039995147	1	0	0
264	0	16	106	0	49	0	122	0.627198717003921	1	0	0
265	0	109	21	1	48	0	122	0.742610405999585	1	0	0
266	0	28	78	0	47	0	120	0.958046432991978	0	0	0
267	0	34	95	1	50	0	122	0.547943430996384	1	0	0
268	0	92	33	1	49	0	122	0.716383033999591	1	0	0
269	0	2	3	0	48	0	122	0.699993558999267	1	0	0
270	1	38	26	1	47	0	120	0.676780754001811	1	0	0
271	0	71	111	0	46	0	122	0.66989207000006	1	0	0
272	0	142	27	0	45	0	122	0.88834976599901	1	0	0
273	1	50	30	1	44	0	122	1.56889743599459	0	0	0
274	1	124	41	1	47	0	122	0.582623909009271	0	0	0
275	1	83	28	1	50	0	120	0.748037718993146	1	0	0
276	1	131	95	0	49	0	120	0.642933983996045	1	0	0
277	0	142	134	0	48	0	122	0.638074528003926	1	0	0
278	1	39	63	1	47	0	120	0.833800906009856	1	0	0
279	1	3	110	0	46	0	122	0.868946351998602	0	0	0
280	0	138	3	0	49	0	122	0.846495763995335	1	0	0
281	0	131	97	0	48	0	120	1.04137075599283	0	0	0
282	1	63	69	0	50	0	120	0.916337246002513	1	0	0
283	1	142	145	1	50	0	120	0.796045470007812	1	0	0
284	1	48	150	0	49	0	120	0.752928977992269	1	0	0
285	0	26	102	0	48	0	122	0.656486962994677	1	0	0
286	1	56	144	0	47	0	120	1.06621960899793	1	0	0
287	0	150	55	1	46	0	122	0.708190443998319	1	0	0
288	1	22	44	1	45	0	120	0.643662854010472	1	0	0
289	0	5	50	1	44	0	122	0.631642981999903	1	0	0
290	0	52	90	0	44	0	120	0.554379230001359	0	0	0
291	1	99	20	1	46	0	120	0.729049240006134	1	0	0
292	0	64	136	1	45	0	122	0.792847746997722	1	0	0
293	0	71	134	1	44	0	122	0.678487814002438	1	0	0
294	0	51	123	1	44	0	122	0.575415473998873	1	0	0
295	1	98	51	1	43	0	120	0.621223651993205	1	0	0
296	1	51	81	0	42	0	122	0.953147072999855	0	0	0
297	0	99	93	1	44	0	122	0.695274779005558	1	0	0
298	0	1	28	0	44	0	122	0.981373825998162	1	0	0
299	1	31	27	1	43	0	120	1.13380955401226	1	0	0
300	1	103	21	1	42	0	120	0.917571123005473	1	0	0
301	1	11	33	1	41	0	120	0.936948645990924	1	0	0
302	1	44	44	1	37	0	120	0.607297556009144	1	0	0
303	1	116	52	1	32	0	122	0.877244021001388	0	0	0
304	1	23	125	1	45	0	120	0.840612109997892	1	0	0
305	0	74	48	1	41	0	122	1.00397726999654	1	0	0
306	0	45	90	0	38	0	122	0.904243229000713	1	0	0
307	1	79	148	0	34	0	120	0.576985501000308	1	0	0
308	1	110	92	1	30	0	122	0.694724550994579	0	0	0
309	1	131	83	0	42	0	122	0.791357818001416	0	0	0
310	0	105	56	0	53	0	122	0.572447787999408	1	0	0
311	0	94	133	1	49	0	122	0.817795963012031	1	0	0
312	0	9	62	0	46	0	122	0.638786444003927	1	0	0
313	0	104	142	1	42	0	122	0.969588815001771	1	0	0
314	0	31	98	1	39	0	120	0.623387340994668	0	0	0
315	1	115	98	1	49	0	120	0.603057710002759	1	0	0
316	1	70	141	1	46	0	122	0.879639495004085	0	0	0
317	0	10	129	0	56	0	120	0.601443374995142	0	0	0
318	0	120	46	1	65	0	122	0.733969767010421	1	0	0
319	0	84	117	1	62	0	122	0.965157405997161	1	0	0
320	1	90	137	1	60	0	120	0.667832045990508	1	0	0
321	1	5	72	0	57	0	120	0.853090921998955	1	0	0
322	1	38	150	0	54	0	122	0.800628743993002	0	0	0
323	0	123	52	0	62	0	120	0.652582021008129	0	0	0
324	1	137	51	0	70	0	122	0.902437811993877	0	0	0
325	0	41	130	1	78	0	122	0.672147997000138	1	0	0
326	1	146	72	0	76	0	122	0.52177798699995	0	0	0
327	1	123	56	1	84	0	120	0.634158736997051	1	0	0
328	0	33	86	0	81	0	120	0.589362225990044	0	0	0
329	0	150	38	1	89	0	122	1.36266502700164	1	0	0
330	1	46	130	1	86	0	122	0.640777521999553	0	0	0
331	0	87	47	1	94	0	122	0.636288103996776	1	0	0
332	0	25	52	0	91	0	120	0.630809558002511	0	0	0
333	0	128	142	0	98	0	122	0.562849975001882	1	0	0
334	1	36	65	1	96	0	120	1.21606337599223	1	0	0
335	1	117	78	1	94	0	120	0.596194464000291	1	0	0
336	0	57	80	0	91	0	120	1.3377863420028	0	0	0
337	1	76	24	0	98	0	122	0.505244009997114	0	0	0
338	1	90	116	0	105	0	120	0.74574649099668	1	0	0
339	0	98	127	0	103	0	122	0.984165971007315	1	0	0
340	0	58	26	1	100	0	122	0.621098087009159	1	0	0
341	0	88	91	1	98	0	122	0.753566490006051	1	0	0
342	0	132	3	0	96	0	122	0.776755325990962	1	0	0
343	0	44	72	0	94	0	120	1.38159938399622	0	0	0
344	0	16	149	1	100	0	120	0.716133659007028	0	0	0
345	0	90	40	1	106	0	122	0.50798867699632	1	0	0
346	1	46	41	0	104	0	122	0.58861704399169	0	0	0
347	1	1	124	1	110	0	120	0.737064957007533	1	0	0
348	0	72	68	1	108	0	122	0.80019806099881	1	0	0
349	0	67	60	0	106	0	122	0.941363089004881	1	0	0
350	0	13	26	1	104	0	120	1.11620498700358	0	0	0
351	0	93	147	1	110	0	122	0.49996280700725	1	0	0
352	1	10	104	1	108	0	120	0.572934016003273	1	0	0
353	0	116	65	1	106	0	122	0.666438375003054	1	0	0
354	1	126	99	1	104	0	120	0.548691475996748	1	0	0
355	0	30	83	1	102	0	122	0.628072468010942	1	0	0
356	1	63	39	0	101	0	120	0.75121634399693	1	0	0
357	0	50	51	1	99	0	122	0.49404240900185	1	0	0
358	0	147	106	1	97	0	122	0.502778027992463	1	0	0
359	1	118	96	1	95	0	120	0.559924715998932	1	0	0
360	1	39	112	1	94	0	122	0.805935900993063	0	0	0
361	0	68	6	0	98	0	122	0.738638253998943	1	0	0
362	1	55	47	0	97	0	120	0.921980714003439	1	0	0
363	0	116	116	1	95	0	120	0.833728477999102	0	0	0
364	1	63	51	0	100	0	120	0.917558931992971	1	0	0
365	0	30	120	1	99	0	120	0.837633160001133	0	0	0
366	0	24	123	1	104	0	120	0.848469941993244	0	0	0
367	0	145	73	0	108	0	122	0.515579560989863	1	0	0
368	1	128	121	1	107	0	120	0.587143671000376	1	0	0
369	0	102	65	1	105	0	122	0.720756707989494	1	0	0
370	1	68	150	0	104	0	122	0.513126443998772	0	0	0
371	1	149	102	1	108	0	122	0.729632143993513	0	0	0
372	1	133	45	1	113	0	120	0.689557625999441	1	0	0
373	0	114	83	0	111	0	120	1.13054463700973	0	0	0
374	1	57	138	0	116	0	120	0.729824201989686	1	0	0
375	0	62	81	0	114	0	122	0.553401155004394	1	0	0
376	1	132	130	1	113	0	120	0.584553806998883	1	0	0
377	1	17	149	1	111	0	120	0.782281755993608	1	0	0
378	1	55	48	1	110	0	120	1.10753861599369	1	0	0
379	0	77	82	0	108	0	122	0.93068565899739	1	0	0
380	0	148	23	1	107	0	122	0.795010702990112	1	0	0
381	0	86	122	1	105	0	122	0.471729249009513	1	0	0
382	1	26	17	1	104	0	120	1.29019690900168	1	0	0
383	1	72	136	0	103	0	120	0.930612274998566	1	0	0
384	0	62	114	1	101	0	122	0.578517373010982	1	0	0
385	0	44	118	1	100	0	122	1.1686019970075	1	0	0
386	0	100	87	1	98	0	122	0.758368725000764	1	0	0
387	0	107	114	1	97	0	122	0.644116067007417	1	0	0
388	1	127	131	1	96	0	120	1.23175097699277	1	0	0
389	1	125	13	1	94	0	120	0.658214762006537	1	0	0
390	0	112	59	1	93	0	122	0.733855973012396	1	0	0
391	0	54	131	1	92	0	122	0.522168561001308	1	0	0
392	0	89	66	0	91	0	122	0.818036629003473	1	0	0
393	0	94	134	0	89	0	122	0.614303025009576	1	0	0
394	1	51	142	0	88	0	120	0.634601515004761	1	0	0
395	0	86	37	0	87	0	122	0.933727854004246	1	0	0
396	0	136	59	0	86	0	122	0.597524038996198	1	0	0
397	0	136	21	0	84	0	122	0.594089544989401	1	0	0
398	1	150	95	0	83	0	120	0.630909590006922	1	0	0
399	0	30	145	1	82	0	122	0.600548222006182	1	0	0
400	0	123	21	0	81	0	122	0.639349165008753	1	0	0
401	0	135	26	0	80	0	120	0.886580635007704	0	0	0
402	0	52	6	0	88	0	122	0.694332815997768	1	0	0
403	0	40	80	0	85	0	122	0.71320384000137	1	0	0
404	0	141	67	0	83	0	122	0.747687925992068	1	0	0
405	1	63	131	1	81	0	122	1.3707854640088	0	0	0
406	1	85	82	0	88	0	120	1.07311210301123	1	0	0
407	0	97	116	0	86	0	122	0.602929239990772	1	0	0
408	0	7	134	1	84	0	122	0.727916398987873	1	0	0
409	1	98	3	0	81	0	120	0.80781820199627	1	0	0
410	1	7	106	1	79	0	120	0.627762844000245	1	0	0
411	0	83	37	1	77	0	122	0.807942321000155	1	0	0
412	0	138	43	0	75	0	122	0.727767643998959	1	0	0
413	1	76	89	0	73	0	122	2.30022758198902	0	0	0
414	1	125	19	1	79	0	120	0.772688590004691	1	0	0
415	1	81	109	1	77	0	120	0.73014708700066	1	0	0
416	0	61	35	0	76	0	122	0.682126332001644	1	0	0
417	1	63	77	1	74	0	122	0.666761922999285	0	0	0
418	0	99	12	1	79	0	122	0.797727630008012	1	0	0
419	1	103	79	0	78	0	120	0.962254833997576	1	0	0
420	0	100	5	1	76	0	122	0.728840238996781	1	0	0
421	1	136	52	1	74	0	120	1.5045537440019	1	0	0
422	1	65	105	1	72	0	120	0.969348651007749	1	0	0
423	1	131	106	1	71	0	120	0.734750112009351	1	0	0
424	1	83	89	0	69	0	122	0.685606568004005	0	0	0
425	0	52	9	0	74	0	122	0.591390218003653	1	0	0
426	1	58	83	1	72	0	122	0.756091589006246	0	0	0
427	1	48	139	1	77	0	120	0.858484862008481	1	0	0
428	1	148	111	1	76	0	120	0.748770222999156	1	0	0
429	1	82	75	0	74	0	120	0.700031629006844	1	0	0
430	1	42	33	1	73	0	122	0.604595310011064	0	0	0
431	0	21	25	0	77	0	122	2.04170369901112	1	0	0
432	1	114	93	1	76	0	120	1.36526807000337	1	0	0
433	1	29	66	0	74	0	122	0.626838570999098	0	0	0
434	1	40	104	1	79	0	120	0.711111861994141	1	0	0
435	0	104	128	0	77	0	122	1.11142868599563	1	0	0
436	0	29	89	0	76	0	122	0.992059384996537	1	0	0
437	0	73	61	1	75	0	122	0.716540745008388	1	0	0
438	0	74	91	1	73	0	122	0.876622064999538	1	0	0
439	1	47	150	1	72	0	120	0.758834598003887	1	0	0
440	0	117	39	0	70	0	122	1.12545060098637	1	0	0
441	1	28	69	1	69	0	120	0.972643308006809	1	0	0
442	0	91	35	1	68	0	122	1.20318491499347	1	0	0
443	0	143	76	0	67	0	122	0.759855696000159	1	0	0
444	0	32	97	0	65	0	120	2.58974648200092	0	0	0
445	1	127	67	1	69	0	120	0.907062837999547	1	0	0
446	1	79	45	0	68	0	120	0.667985213003703	1	0	0
447	1	103	93	0	66	0	120	0.821973189988057	1	0	0
448	0	40	26	1	65	0	122	0.914195161007228	1	0	0
449	1	18	141	1	64	0	120	0.625333629999659	1	0	0
450	1	117	125	1	63	0	120	1.10166013400885	1	0	0
451	1	59	143	0	62	0	120	0.814509393996559	1	0	0
452	1	56	62	0	61	0	120	0.7873745639954	1	0	0
453	1	135	150	0	59	0	120	0.648310121003306	1	0	0
454	0	29	50	1	58	0	122	0.571768694004277	1	0	0
455	0	109	5	0	57	0	122	0.697703838988673	1	0	0
456	1	35	89	1	56	0	122	0.554029309991165	0	0	0
457	1	56	32	0	59	0	120	0.696568518003915	1	0	0
458	1	80	32	0	58	0	120	0.88940773801005	1	0	0
459	0	59	56	1	57	0	122	0.834490686000208	1	0	0
460	1	14	103	0	56	0	122	0.861803356994642	0	0	0
461	0	102	115	1	59	0	122	0.63279476101161	1	0	0
462	1	120	120	1	58	0	122	0.732070504003786	0	0	0
463	1	55	46	0	61	0	120	1.44464214400796	1	0	0
464	0	79	80	1	60	0	122	0.71130672399886	1	0	0
465	1	113	7	1	59	0	120	0.99221888599277	1	0	0
466	1	109	118	0	58	0	120	0.932701587997144	1	0	0
467	0	24	106	1	57	0	122	1.1080084189889	1	0	0
468	1	126	26	1	56	0	122	0.818704956996953	0	0	0
469	0	89	129	1	59	0	122	0.656632041995181	1	0	0
470	0	77	38	0	58	0	122	0.578804107004544	1	0	0
471	0	14	56	0	57	0	122	0.704728425000212	1	0	0
472	0	46	52	0	56	0	122	0.641115138001624	1	0	0
473	0	18	105	0	56	0	122	0.636302643004456	1	0	0
474	1	122	17	1	55	0	120	0.607218532997649	1	0	0
475	0	124	48	1	54	0	122	0.675266603997443	1	0	0
476	1	125	67	0	53	0	120	0.813903432994266	1	0	0
477	1	3	27	1	52	0	122	0.977407849990414	0	0	0
478	1	72	146	1	55	0	120	0.750631135990261	1	0	0
479	0	82	54	1	54	0	122	0.605353945997194	1	0	0
480	1	1	102	1	53	0	120	0.713326622993918	1	0	0
481	0	120	112	1	52	0	122	0.682341396008269	1	0	0
482	0	89	27	1	51	0	122	0.635629306998453	1	0	0
483	0	148	122	1	50	0	120	0.631149102002382	0	0	0
484	1	37	23	0	53	0	120	1.59496588299226	1	0	0
485	0	108	67	0	52	0	122	0.6639484490006	1	0	0
486	1	118	96	0	51	0	122	1.40219346700178	0	0	0
487	1	141	127	0	54	0	120	0.958236477003084	1	0	0
488	1	11	41	0	53	0	122	0.580941274994984	0	0	0
489	0	20	71	1	55	0	120	0.754837285989197	0	0	0
490	1	5	40	1	58	0	120	0.825730041993666	1	0	0
491	1	123	70	1	57	0	120	1.1319327379897	1	0	0
492	0	46	99	0	56	0	122	0.572580815991387	1	0	0
493	0	109	108	0	55	0	122	0.746555870005977	1	0	0
494	1	105	48	1	54	0	122	0.738701178997871	0	0	0
495	1	110	97	1	57	0	122	0.625922236009501	0	0	0
496	0	63	31	1	59	0	120	1.14156323799398	0	0	0
497	1	139	30	0	61	0	120	0.580804926998098	1	0	0
498	1	115	46	1	61	0	120	0.818605457010563	1	0	0
499	0	53	17	0	60	0	122	0.505771864991402	1	0	0
500	0	123	130	1	59	0	122	0.62222584700794	1	0	0
