Trial	Gender_Face1	Face1_nb	Face2_nb	Right_left_flip	Nb_Bubbles	Overlap_Target	Response	RT	Accuracy	Simi2Target	Trial_Reward
1	1	130	140	1	108	0	120	1.71121109300293	1	0.0525177336832924	10.1282197592968
2	1	140	71	1	105	0	120	0.800632393977139	1	0.110048697081472	10.1282257806291
3	0	39	104	1	103	0	122	0.800932453013957	1	0.0644506860751712	10.1282327779882
4	1	32	53	1	100	0	120	1.97529995098012	1	0.129445106994458	10.1282511908957
5	0	12	22	0	98	0	120	5.91819792904425	0	0.158228975468247	-20.2565440780787
6	1	17	62	0	105	0	120	3.42121557303471	1	0.0696272626882059	10.1282257806291
7	1	28	125	0	103	0	120	1.24871230701683	1	0.0491268619587699	10.1282327779882
8	1	133	89	0	101	0	122	1.97647402301664	0	0.13650473835515	-20.2564873547698
9	1	86	9	0	108	0	120	2.86568365298444	1	0.121424426973865	10.1282197592968
10	1	57	66	1	106	0	120	1.13144501997158	1	0.143573701914005	10.1282233008503
11	1	53	134	0	104	0	122	1.6729791489779	0	0.104626148305491	-20.256457778628
12	1	46	20	0	110	0	120	1.48618607100798	1	0.165158628251957	10.1282175342379
13	1	17	136	0	108	0	120	2.76459811400855	1	0.106084359916181	10.1282197592968
14	0	129	9	0	106	0	122	1.51762124098605	1	0.0966612388082371	10.1282233008503
15	0	94	73	0	104	0	122	2.17406361899339	1	0.0811351860476232	10.128228889314
16	1	71	29	0	102	0	122	1.07570795796346	0	0.0723318837032286	-20.2564752637026
17	0	128	43	0	108	0	122	0.806772711977828	1	0.0709331944973322	10.1282197592968
18	0	41	50	1	106	0	122	0.908419598999899	1	0.0932327454047021	10.1282233008503
19	0	13	112	1	104	0	122	2.60488265595632	1	0.0651874823238934	10.128228889314
20	1	41	112	1	102	0	120	2.29712081700563	1	0.101182795872809	10.1282376318513
21	0	148	112	1	101	0	122	1.27418468799442	1	0.164074127795961	10.1282436773849
22	0	150	110	0	99	0	122	0.916301585966721	1	0.0828478294272006	10.1282605086741
23	0	94	133	0	97	0	122	7.28498683002545	1	0.102404934395711	10.1282862765809
24	1	42	21	0	95	0	122	4.94193361804355	0	0.0653054160911384	-20.2566507732044
25	1	141	95	0	101	0	120	3.86122046102537	1	0.110265863430529	10.1282436773849
26	1	29	15	0	99	0	120	10.4551567739691	1	0.0636674030312553	10.1282605086741
27	1	65	146	0	97	0	120	1.24080828903243	1	0.108700136464382	10.1282862765809
28	0	133	123	0	96	0	122	1.37264769600006	1	0.148584148718678	10.1283038189504
29	1	74	3	0	94	0	122	3.0188680299907	0	0.0919888093930141	-20.2567036918718
30	1	6	94	1	99	0	120	0.814430625003297	1	0.109158739339556	10.1282605086741
31	0	123	62	0	98	0	122	3.26732112601167	1	0.0902872167702575	10.1282720390393
32	1	22	78	1	96	0	120	1.30924920801772	1	0.105035988500579	10.1283038189504
33	0	77	148	1	94	0	122	0.893995655991603	1	0.146928769232494	10.1283518459359
34	1	117	5	0	93	0	120	0.767606830049772	1	0.114885242594748	10.1283842363467
35	1	37	8	0	92	0	120	1.06180504697841	1	0.0710029451015479	10.1284238017518
36	1	99	31	0	90	0	120	0.752619553008117	1	0.112804271436838	10.1285306814456
37	0	58	22	0	89	0	122	1.00810471898876	1	0.0906158039056068	10.1286018657176
38	1	91	36	1	87	0	120	0.724913254962303	1	0.128801390199775	10.1287922399322
39	1	100	82	0	86	0	120	1.85429877298884	1	0.135549967020726	10.1289178466182
40	0	145	1	1	84	0	122	0.792258026020136	1	0.0764173126568687	10.1292504214265
41	0	77	80	1	83	0	122	1.55051708698738	1	0.0493557399468994	10.129467796308
42	1	66	45	1	82	0	122	3.26944535400253	0	0.10584401727645	-20.2594553089537
43	1	42	19	0	86	0	122	3.49522381694987	0	0.113930454386967	-20.2578356932364
44	0	29	16	0	90	0	122	3.71121541096363	1	0.105004278678973	10.1285306814456
45	0	49	25	0	88	0	122	2.11187664797762	1	0.136030176403843	10.1286880704412
46	1	136	50	0	87	0	120	1.91974931803998	1	0.0845770566526974	10.1287922399322
47	0	129	40	0	86	0	122	5.95153329696041	1	0.076496528825952	10.1289178466182
48	1	150	26	0	84	0	120	1.0673054989893	1	0.0704969572973083	10.1292504214265
49	1	75	73	0	83	0	120	1.11155790404882	1	0.0792108438157108	10.129467796308
50	0	100	133	1	82	0	122	1.91255205695052	1	0.152980416138333	10.1297276544769
51	1	42	53	0	81	0	120	1.55266409600154	1	0.0763838660895904	10.1300376307174
52	0	16	48	1	80	0	122	0.863269109977409	1	0.0636373884288457	10.1304065965614
53	1	75	121	1	79	0	120	0.809664374974091	1	0.0602781463245753	10.130844835
54	1	6	117	0	77	0	120	0.623323839972727	1	0.10526700428996	10.1319785101223
55	1	129	54	1	76	0	120	1.95547902001999	1	0.0657430778141764	10.1327034348271
56	1	117	12	0	75	0	120	4.13793990702834	1	0.0984108429822275	10.133557113535
57	0	46	142	0	74	0	122	0.672575260978192	1	0.105664747069118	10.1345602706667
58	0	149	13	0	73	0	122	0.923675662023015	1	0.148419542528875	10.1357365713395
59	1	132	141	1	72	0	120	1.01969294896116	1	0.0856541379679669	10.1371129716293
60	1	126	145	0	71	0	120	0.784431192965712	1	0.0725276172912812	10.1387201003248
61	0	128	75	0	70	0	122	0.766432250034995	1	0.0524459540973799	10.1405926736671
62	0	128	100	0	69	0	122	0.629135366005357	1	0.09537589970144	10.1427699445011
63	0	101	64	1	68	0	122	2.50581996497931	1	0.113570768220417	10.1452961872043
64	0	135	52	0	67	0	120	1.85035400599008	0	0.0867509069164731	-20.2964424394063
65	0	99	92	1	70	0	122	1.46117152000079	1	0.113211426584119	10.1405926736671
66	0	9	94	1	69	0	122	0.631678903009742	1	0.0728150796209963	10.1427699445011
67	0	122	45	0	68	0	122	0.73961925302865	1	0.0407199776805048	10.1452961872043
68	1	22	14	0	67	0	122	0.819641508976929	0	0.0717971464764745	-20.2964424394063
69	1	94	17	1	70	0	120	0.911383831000421	1	0.103745247420551	10.1405926736671
70	1	57	3	0	69	0	120	0.896323129010852	1	0.0737206148036331	10.1427699445011
71	0	81	132	1	68	0	122	2.0177105179755	1	0.0658001569772769	10.1452961872043
72	0	49	58	0	67	0	122	5.34989096596837	1	0.0917518421262622	10.1482212197032
73	1	11	112	1	66	0	120	0.788206546974834	1	0.0761033681683677	10.1516009638473
74	0	139	66	0	65	0	120	2.074888698	0	0.110387897745239	-20.3109960907989
75	0	33	30	1	68	0	120	1.3247368989978	0	0.0730722109542174	-20.2905923744087
76	0	36	99	1	71	0	122	1.48516941000707	1	0.0569053331791244	10.1387201003248
77	1	128	123	1	70	0	120	1.0226207950036	1	0.0995030437893377	10.1405926736671
78	0	87	65	1	69	0	120	1.36228525900515	0	0.110075982030107	-20.2855398890023
79	1	80	119	0	71	0	120	0.945474506006576	1	0.052894960671113	10.1387201003248
80	0	87	30	1	71	0	122	1.50473991903709	1	0.111890648418242	10.1387201003248
81	1	113	51	0	70	0	120	1.04159254400292	1	0.0752886184652019	10.1405926736671
82	0	125	122	0	69	0	122	3.23833174601896	1	0.0534347725025968	10.1427699445011
83	0	134	64	0	68	0	122	0.864810976956505	1	0.0674052800838993	10.1452961872043
84	0	15	90	1	67	0	122	0.963241532968823	1	0.0787921698263439	10.1482212197032
85	1	52	85	1	66	0	120	1.36183566704858	1	0.0456479723045368	10.1516009638473
86	1	88	132	0	66	0	122	1.60873285599519	0	0.0804140780545633	-20.3032019276947
87	1	75	77	0	68	0	120	0.653982187970541	1	0.0266521454316154	10.1452961872043
88	1	67	82	1	67	0	120	3.83341454598121	1	0.0605269212505208	10.1482212197032
89	1	34	71	0	66	0	120	0.916852803959046	1	0.0975089283202929	10.1516009638473
90	0	77	18	1	66	0	122	0.765623293002136	1	0.122845581175995	10.1516009638473
91	1	111	94	0	65	0	122	2.83604159898823	0	0.0951360895865444	-20.3109960907989
92	0	18	55	0	67	0	122	1.30067150399555	1	0.0520444118480149	10.1482212197032
93	0	148	76	0	66	0	122	0.97646385896951	1	0.0923878823668265	10.1516009638473
94	1	11	33	0	66	0	120	3.40660855197348	1	0.0653021985429683	10.1516009638473
95	0	130	72	1	65	0	122	0.715217735967599	1	0.0916271728015832	10.1554980453995
96	0	52	126	0	64	0	122	0.612147300038487	1	0.118906855531246	10.1599824349267
97	1	83	115	0	63	0	120	0.839747740013991	1	0.0639024280410434	10.1651321309659
98	0	21	31	1	63	0	122	3.86032730597071	1	0.0538822177197389	10.1651321309659
99	0	138	25	0	62	0	122	0.96717938099755	1	0.0823064492393764	10.1710338869944
100	0	69	132	0	61	0	122	0.757108905992936	1	0.0674776657056985	10.1777839839948
101	1	5	84	1	61	0	120	1.82780276698759	1	0.106193160426055	10.1777839839948
102	1	27	35	0	58	0	120	0.911681703990325	1	0.0799196431002303	10.2042476265191
103	0	119	48	0	56	0	120	0.8192261759541	0	0.0694936646797305	-20.4568081430681
104	0	86	148	1	64	0	122	1.40913826599717	1	0.0559341993905097	10.1599824349267
105	0	70	43	0	61	0	122	0.846566502004862	1	0.0653550085469675	10.1777839839948
106	1	64	64	1	59	0	120	1.41001306398539	1	0.0647624775918475	10.1942669347537
107	1	7	149	0	57	0	120	1.2067952369689	1	0.0694985674901945	10.2155742425688
108	0	25	28	0	54	0	122	4.92462551698554	1	0.0579944949673712	10.2592801621694
109	0	149	69	0	52	0	122	1.2518442159635	1	0.0355636083974503	10.2984621447649
110	0	23	49	0	50	0	122	0.9751868089661	1	0.079628821135198	10.3478437490739
111	0	78	9	1	48	0	122	0.788627216999885	1	0.057680833336822	10.409677003319
112	1	99	27	0	45	0	120	1.06325577100506	1	0.0632225976920151	10.5317515270736
113	0	85	107	1	43	0	122	4.55694841098739	1	0.0759418556099813	10.6375143482975
114	0	146	124	1	41	0	120	1.54704599198885	0	0.0520592534900481	-21.5349428550014
115	0	71	28	0	48	0	120	4.26580851199105	0	0.0805757797141248	-20.8193540066379
116	1	99	52	0	54	0	122	4.2282538410509	0	0.0514541728306848	-20.5185603243388
117	0	14	14	1	60	0	120	3.7910828650347	0	0.0272577025216452	-20.3709781015572
118	1	95	84	0	66	0	120	0.892661645018961	1	0.0319510883205936	10.1516009638473
119	0	45	138	1	64	0	122	1.27721348399064	1	0.0402323032494518	10.1599824349267
120	0	45	64	1	62	0	122	3.5757573019946	1	0.0724214823937514	10.1710338869944
121	1	53	49	1	61	0	120	0.924907024018466	1	0.0990751371989132	10.1777839839948
122	0	103	122	1	59	0	122	0.757248318986967	1	0.0758015853130008	10.1942669347537
123	1	95	134	0	57	0	120	1.34863365400815	1	0.0932405385286686	10.2155742425688
124	1	102	31	0	56	0	120	1.30734030698659	1	0.0983802003188109	10.2284040715341
125	0	119	10	0	54	0	120	0.858921631996054	0	0.0472587878043963	-20.5185603243388
126	0	150	15	0	59	0	122	1.03958566300571	1	0.0440176748364404	10.1942669347537
127	0	5	128	1	57	0	122	2.52311995800119	1	0.108625562035714	10.2155742425688
128	1	95	87	0	56	0	122	2.41908251302084	0	0.0495665333481858	-20.4568081430681
129	0	90	112	0	61	0	122	1.17487100098515	1	0.0361956089563718	10.1777839839948
130	0	41	114	0	59	0	122	0.813045602990314	1	0.0963055132719923	10.1942669347537
131	0	112	109	1	57	0	122	0.857805918960366	1	0.0752567021467534	10.2155742425688
132	0	85	80	1	56	0	122	0.612715167982969	1	0.0855066220800227	10.2284040715341
133	1	3	7	0	54	0	120	1.88208022696199	1	0.0597167911989032	10.2592801621694
134	1	61	46	0	53	0	122	0.867770360026043	0	0.0955983748932057	-20.5554446340898
135	0	39	47	1	58	0	122	1.17426168202655	1	0.0695558636281167	10.2042476265191
136	1	27	112	0	56	0	120	1.31648335198406	1	0.0365383946237963	10.2284040715341
137	0	76	124	0	55	0	122	0.724359534971882	1	0.0511930286473089	10.2429096908112
138	1	1	9	1	53	0	120	0.813852401042823	1	0.0418768418477205	10.2777223170449
139	1	29	66	0	52	0	122	7.89778771199053	0	0.0554962914054147	-20.5969242895297
140	1	85	14	1	56	0	120	0.937576360011008	1	0.0895783780634956	10.2284040715341
141	0	137	14	0	54	0	122	3.54596898000455	1	0.106829713620655	10.2592801621694
142	0	113	73	0	53	0	120	1.20098822202999	0	0.109813131955568	-20.5554446340898
143	0	37	78	1	57	0	122	0.861900959978811	1	0.0699084570015127	10.2155742425688
144	1	108	125	0	56	0	120	1.8639040410053	1	0.0763030831602513	10.2284040715341
145	0	25	18	1	55	0	122	0.698284105979837	1	0.0795064997103865	10.2429096908112
146	0	11	52	1	53	0	122	0.932278707041405	1	0.0463773285703658	10.2777223170449
147	1	8	132	1	52	0	120	1.92344911798136	1	0.0408079116620373	10.2984621447649
148	1	115	40	0	51	0	120	0.971143637958448	1	0.0506597987379413	10.3217462999684
149	1	71	87	0	50	0	120	1.2898331740289	1	0.0561611395283787	10.3478437490739
150	1	74	91	1	48	0	120	1.57920610299334	1	0.0464167237386518	10.409677003319
151	1	31	64	1	47	0	122	1.48145446600392	0	0.0387885323388924	-20.8921591649053
152	1	8	9	0	51	0	120	1.84029087499948	1	0.0904445851302557	10.3217462999684
153	0	30	102	0	50	0	120	6.21902606001822	0	0.0697252818636694	-20.6956874981478
154	0	76	112	0	53	0	122	0.878648854966741	1	0.0678190738061782	10.2777223170449
155	1	80	114	0	52	0	120	0.920647218998056	1	0.0949130546950171	10.2984621447649
156	0	91	148	1	51	0	120	2.44873282400658	0	0.0698253693437272	-20.6434925999369
157	1	83	124	0	54	0	120	0.995728927024174	1	0.0711202051410586	10.2592801621694
158	0	67	142	0	53	0	122	0.920703474024776	1	0.0524824750794946	10.2777223170449
159	1	35	83	0	52	0	120	1.08099996496458	1	0.0981480443347142	10.2984621447649
160	0	107	52	1	51	0	120	2.46655037102755	0	0.134876982599357	-20.6434925999369
161	1	144	104	1	54	0	120	2.61287191597512	1	0.0457450238327629	10.2592801621694
162	1	11	27	1	53	0	120	0.696980715962127	1	0.062193097315146	10.2777223170449
163	0	4	65	1	52	0	122	0.810932045977097	1	0.0877794171697118	10.2984621447649
164	1	21	20	0	51	0	120	1.68695751798805	1	0.0621714777452057	10.3217462999684
165	1	33	111	0	50	0	120	1.34445746702841	1	0.115443960293257	10.3478437490739
166	0	88	38	0	49	0	122	3.20023219694849	1	0.0266743144462257	10.3770475798729
167	1	144	112	1	48	0	120	0.809481308970135	1	0.0810822609885657	10.409677003319
168	1	109	148	0	47	0	120	1.99320495198481	1	0.0303068392735068	10.4460795824527
169	0	22	33	0	46	0	120	1.11044107394991	0	0.0622553579011538	-20.9732674606748
170	1	61	97	0	49	0	122	1.18284368200693	0	0.0357410074046928	-20.7540951597459
171	1	66	9	0	52	0	120	1.44506006396841	1	0.0923708593354711	10.2984621447649
172	1	91	54	0	51	0	120	0.824571406992618	1	0.0759447485853809	10.3217462999684
173	1	120	14	1	50	0	120	0.94878802500898	1	0.118031446828752	10.3478437490739
174	0	4	22	1	49	0	122	5.08403666300001	1	0.0696124285112618	10.3770475798729
175	0	37	6	1	48	0	122	2.27630589797627	1	0.0363955935368453	10.409677003319
176	1	149	70	1	47	0	122	3.47575088997837	0	0.0731574878329982	-20.8921591649053
177	1	148	53	1	50	0	120	0.743623743997887	1	0.0550024159371758	10.3478437490739
178	0	45	150	0	49	0	122	0.893673688988201	1	0.0504179850782403	10.3770475798729
179	0	80	117	0	48	0	122	1.02475972200045	1	0.08710526204357	10.409677003319
180	1	150	116	0	47	0	120	0.860568968986627	1	0.0937285796668242	10.4460795824527
181	0	47	42	1	46	0	122	1.41488108801423	1	0.0817192277288339	10.4866337303374
182	0	95	37	1	45	0	122	0.603486389038153	1	0.102851012205354	10.5317515270736
183	1	52	13	0	44	0	120	0.833140426955651	1	0.0887106013161061	10.5818819156885
184	0	121	94	0	44	0	122	0.690353827958461	1	0.115517547349559	10.5818819156885
185	1	59	129	1	43	0	120	0.902814524015412	1	0.047906576275362	10.6375143482975
186	0	106	39	1	42	0	120	1.0722955930396	0	0.0393678357760916	-21.3983659356866
187	0	42	116	1	44	0	120	1.6986323640449	0	0.0905751139277996	-21.1637638313771
188	0	20	89	1	47	0	120	0.787361485010479	0	0.0503825566163284	-20.8921591649053
189	0	126	24	1	50	0	122	0.697461889008991	1	0.114022601292208	10.3478437490739
190	0	57	126	0	49	0	122	1.00256192300003	1	0.0585521014894078	10.3770475798729
191	1	41	39	0	48	0	122	1.43974962999346	0	0.086995653969162	-20.8193540066379
192	1	120	134	1	50	0	120	1.8108364319778	1	0.091704570364315	10.3478437490739
193	1	107	37	1	50	0	120	0.671776307979599	1	0.0634073720755934	10.3478437490739
194	0	113	75	0	49	0	122	1.32289863802725	1	0.0447669198109335	10.3770475798729
195	1	67	57	0	48	0	120	0.994474793027621	1	0.0520103972314337	10.409677003319
196	0	119	147	1	47	0	120	1.54416132398183	0	0.0834008777037936	-20.8921591649053
197	1	3	128	1	50	0	120	1.7590365310316	1	0.0298509386958666	10.3478437490739
198	1	93	41	0	49	0	122	0.870097709004767	0	0.0716348169145998	-20.7540951597459
199	0	94	72	0	51	0	120	4.59268997999607	0	0.0762616536290529	-20.6434925999369
200	0	103	99	0	53	0	120	6.22786478197668	0	0.123501516828849	-20.5554446340898
201	1	144	41	1	56	0	120	2.24433088500518	1	0.0628310660143758	10.2284040715341
202	0	26	108	0	53	0	122	1.04807826498291	1	0.0686535149720368	10.2777223170449
203	0	119	86	1	51	0	120	0.694783554994501	0	0.0630434539803009	-20.6434925999369
204	1	116	17	0	59	0	120	0.722263404983096	1	0.0606429920191017	10.1942669347537
205	0	26	5	1	56	0	122	1.03440801700344	1	0.0287310645344912	10.2284040715341
206	0	73	86	0	54	0	120	1.31943405198399	0	0.091456510662985	-20.5185603243388
207	0	91	40	1	61	0	122	0.839807906013448	1	0.112980100455992	10.1777839839948
208	1	62	114	1	59	0	120	0.899083536001854	1	0.141891692324796	10.1942669347537
209	0	94	17	0	57	0	122	0.655845714034513	1	0.0946108220499195	10.2155742425688
210	1	31	98	1	55	0	120	2.06436389003647	1	0.0834366284928068	10.2429096908112
211	0	73	138	0	53	0	120	11.5113160010078	0	0.0617691303567152	-20.5554446340898
212	0	110	73	0	59	0	120	1.29739289096324	0	0.0814495519748057	-20.3885338695075
213	1	65	88	0	65	0	120	1.05876110401005	1	0.0381912333734232	10.1554980453995
214	0	105	48	1	63	0	120	1.00599514396163	0	0.13560459394861	-20.3302642619318
215	1	11	5	1	68	0	120	1.08284971595276	1	0.0365066287780576	10.1452961872043
216	0	126	86	0	67	0	122	0.604491530975793	1	0.079863530865037	10.1482212197032
217	1	64	71	0	65	0	120	0.693874258024152	1	0.0309857462727016	10.1554980453995
218	1	50	49	0	63	0	120	2.32373450498562	1	0.109919105325773	10.1651321309659
219	0	98	63	0	61	0	120	3.75595586601412	0	0.0842202573099001	-20.3555679679896
220	0	22	60	0	67	0	120	7.12242514797254	0	0.160970863525756	-20.2964424394063
221	0	149	106	1	72	0	122	0.641769524954725	1	0.0746251650928749	10.1371129716293
222	0	85	56	0	70	0	122	1.5256779170013	1	0.126629640735231	10.1405926736671
223	0	131	113	0	68	0	122	0.662152544013225	1	0.0589559408197236	10.1452961872043
224	1	143	36	1	67	0	120	3.75314617995173	1	0.0407061285280906	10.1482212197032
225	0	69	43	0	65	0	122	0.704109921993222	1	0.0791852644284058	10.1554980453995
226	1	108	50	0	64	0	120	0.777229739003815	1	0.0774200013802448	10.1599824349267
227	1	9	101	0	62	0	120	1.01453190401662	1	0.135367408105932	10.1710338869944
228	1	143	31	0	61	0	120	0.779774661001284	1	0.150094265642607	10.1777839839948
229	0	20	136	1	59	0	120	3.42604175698943	0	0.0897649819552865	-20.3885338695075
230	0	117	125	1	64	0	122	0.662621404975653	1	0.0823531978336876	10.1599824349267
231	1	112	75	1	62	0	120	0.793059721007012	1	0.0541119398161597	10.1710338869944
232	1	101	51	0	61	0	120	2.72703121101949	1	0.110827696841831	10.1777839839948
233	1	72	26	0	60	0	120	9.86806208599592	1	0.086054522835023	10.1854890507786
234	1	129	19	1	58	0	120	0.992126644996461	1	0.0546068294843147	10.2042476265191
235	1	38	4	1	57	0	120	7.99858452496119	1	0.118095868890113	10.2155742425688
236	0	49	13	0	55	0	122	1.42666011798428	1	0.0787751284205636	10.2429096908112
237	0	26	71	1	54	0	120	2.35045760503272	0	0.066039419738998	-20.5185603243388
238	0	49	87	1	58	0	122	1.00335923803505	1	0.0032580896853147	0
239	1	16	35	1	57	0	120	1.08340936899185	1	0.0668601835815459	10.2155742425688
240	0	56	84	0	56	0	120	2.86940545600373	0	0.0487139607469387	-20.4568081430681
241	0	38	36	0	59	0	122	0.968040061998181	1	0.110880542537043	10.1942669347537
242	0	120	138	0	58	0	122	1.11839850002434	1	0.0598183595976578	10.2042476265191
243	0	137	81	1	57	0	122	0.718623476976063	1	0.0740019405064587	10.2155742425688
244	1	98	7	0	56	0	120	1.44756089802831	1	0.119890655636366	10.2284040715341
245	0	78	128	0	54	0	122	0.666129047982395	1	0.0729782588701973	10.2592801621694
246	0	41	146	0	53	0	120	0.88583889300935	0	0.0607705272958759	-20.5554446340898
247	0	34	143	0	57	0	122	0.687666571990121	1	0.0518505176820976	10.2155742425688
248	1	108	43	1	56	0	122	4.24973977002082	0	0.0243582465990954	-0
249	0	63	4	0	59	0	122	0.748653154005297	1	0.0526096552639794	10.1942669347537
250	1	93	140	0	58	0	120	0.828391974035185	1	0.0584083556231677	10.2042476265191
251	1	16	8	0	57	0	120	0.92030179995345	1	0.0317954060044345	10.2155742425688
252	1	130	38	1	56	0	120	0.880608920007944	1	0.130054194206327	10.2284040715341
253	1	132	113	0	55	0	122	2.17048847395927	0	0.0588409018838339	-20.4858193816224
254	1	132	103	1	58	0	120	1.18465521803591	1	0.0586371627235776	10.2042476265191
255	1	35	88	0	57	0	122	0.718166284030303	0	0.0819963701551265	-20.4311484851376
256	1	51	143	0	60	0	120	3.85600279498613	1	0.0896298663296394	10.1854890507786
257	0	24	9	0	59	0	122	1.29016489099013	1	0.0485786711922191	10.1942669347537
258	0	77	36	0	58	0	122	0.79562106798403	1	0.0842528337071707	10.2042476265191
259	1	25	55	0	57	0	120	5.08937435300322	1	0.110246749758537	10.2155742425688
260	1	51	31	0	56	0	120	0.617899920034688	1	0.0446964848241464	10.2284040715341
261	1	110	123	1	55	0	120	2.61548063298687	1	0.0439844857846057	10.2429096908112
262	0	60	100	1	54	0	122	1.09158167301212	1	0.100359562813345	10.2592801621694
263	0	127	115	0	53	0	122	0.564753575017676	1	0.0179712576008211	0
264	1	81	110	0	52	0	120	0.945456915011164	1	0.0753664620918519	10.2984621447649
265	0	49	3	0	51	0	122	0.842954299994744	1	0.0964896013877979	10.3217462999684
266	1	128	106	1	50	0	122	2.51871697598835	0	0.0733208282998476	-20.6956874981478
267	1	99	22	0	53	0	122	1.94043822900858	0	0.0571038784340279	-20.5554446340898
268	0	146	62	0	56	0	122	4.47040511999512	1	0.060468219353635	10.2284040715341
269	1	108	44	0	55	0	122	0.88850956998067	0	0.133292225623483	-20.4858193816224
270	0	148	72	1	58	0	122	1.13773605995812	1	0.0938338359949962	10.2042476265191
271	1	109	43	1	57	0	120	1.16135873401072	1	0.0852640453606471	10.2155742425688
272	1	79	98	0	56	0	122	2.36480147298425	0	0.104510505459216	-20.4568081430681
273	1	44	71	0	59	0	122	1.07047329802299	0	0.0727726461811082	-20.3885338695075
274	0	19	36	0	61	0	122	3.03209343797062	1	0.106905704504264	10.1777839839948
275	0	99	99	0	60	0	120	1.59613118704874	0	0.0728968340408067	-20.3709781015572
276	0	59	98	1	63	0	122	3.6888849909883	1	0.122794451926599	10.1651321309659
277	0	120	13	0	62	0	120	2.37817018997157	0	0.0650130536009338	-20.3420677739887
278	0	44	90	1	65	0	122	1.09510506002698	1	0.0440431399918232	10.1554980453995
279	1	108	103	0	64	0	120	1.12033045699354	1	0.0796749476217749	10.1599824349267
280	1	38	139	0	63	0	122	0.680356701021083	0	0.0476091169501666	-20.3302642619318
281	0	82	68	0	66	0	122	1.17132720805239	1	0.0629401786356231	10.1516009638473
282	0	43	146	0	65	0	122	1.60939075396163	1	0.0439623507408957	10.1554980453995
283	1	52	82	1	64	0	120	1.48653226904571	1	0.064102630792731	10.1599824349267
284	0	73	47	0	63	0	120	2.91155187797267	0	0.0406315914692518	-20.3302642619318
285	0	140	33	1	66	0	122	0.752030676987488	1	0.0925007076332006	10.1516009638473
286	1	81	114	0	65	0	122	3.06288643402513	0	0.0533379832682941	-20.3109960907989
287	0	44	68	0	68	0	122	0.681266304978635	1	0.0199106562216701	0
288	1	150	135	0	67	0	122	0.940384517947678	0	0.0774577281946959	-20.2964424394063
289	0	124	22	0	69	0	122	1.02685250999639	1	0.056578512045263	10.1427699445011
290	1	103	82	1	69	0	120	1.64752240799135	1	0.0797104436136732	10.1427699445011
291	1	11	29	0	68	0	122	0.674344469967764	0	0.104865308716464	-20.2905923744087
292	0	150	94	1	70	0	122	0.629437658993993	1	0.0528892421604133	10.1405926736671
293	0	59	120	0	69	0	122	0.953194717003498	1	0.0791697349473256	10.1427699445011
294	1	54	38	0	69	0	120	0.968163945013657	1	0.0574852660330257	10.1427699445011
295	0	41	53	0	68	0	120	1.18215087300632	0	0.0681668946566936	-20.2905923744087
296	1	117	12	1	70	0	122	0.972400560975075	0	0.0773914178050588	-20.2811853473342
297	1	67	86	0	73	0	120	1.37095669499831	1	0.053162466674737	10.1357365713395
298	0	27	107	0	72	0	122	1.12936617201194	1	0.0720839201976683	10.1371129716293
299	1	81	87	1	71	0	120	1.0090985110146	1	0.0378507183696469	10.1387201003248
300	0	75	40	0	70	0	122	0.702168478048407	1	0.0533289983825	10.1405926736671
301	0	137	88	0	69	0	122	0.732350520964246	1	0.0575424363022484	10.1427699445011
302	0	141	51	0	66	0	122	0.732100908004213	1	0.11984834301031	10.1516009638473
303	0	88	132	0	64	0	122	0.72028261696687	1	0.0813514547694849	10.1599824349267
304	0	70	77	0	61	0	120	3.47499260801123	0	0.0799288843371078	-20.3555679679896
305	1	44	77	0	69	0	122	0.580666517023928	0	0.140954956462257	-20.2855398890023
306	1	53	141	0	76	0	120	1.0830304720439	1	0.0961337255674125	10.1327034348271
307	1	62	61	1	74	0	120	0.812411809980404	1	0.162480373670329	10.1345602706667
308	1	48	143	0	72	0	122	3.12144289899152	0	0.0813481199916051	-20.2742259432586
309	1	84	9	0	79	0	120	0.921011090977117	1	0.0749403701414463	10.130844835
310	0	112	62	1	77	0	122	1.24090376397362	1	0.0941540138309169	10.1319785101223
311	0	3	128	0	75	0	122	0.90888379997341	1	0.0726371967917138	10.133557113535
312	1	127	24	0	73	0	120	0.774192595039494	1	0.114488634319651	10.1357365713395
313	0	54	44	0	71	0	120	10.1329826239962	0	0.0510559127327517	-20.2774402006495
314	0	147	92	0	77	0	122	4.46746362099657	1	0.120979787991098	10.1319785101223
315	1	144	140	1	75	0	120	13.1334323569899	1	0.0677389226563687	10.133557113535
316	0	81	30	1	73	0	122	1.91558822500519	1	0.1276044347332	10.1357365713395
317	0	42	9	1	71	0	122	2.77157065295614	1	0.0749187457101137	10.1387201003248
318	1	64	115	1	69	0	120	0.737876601051539	1	0.10612756223045	10.1427699445011
319	1	72	135	1	68	0	120	2.13737265695818	1	0.0634599383912102	10.1452961872043
320	1	32	89	0	66	0	120	0.809176540991757	1	0.0526368930454908	10.1516009638473
321	0	115	55	0	64	0	122	2.11125322501175	1	0.107103507031883	10.1599824349267
322	0	20	128	0	62	0	120	0.95904755796073	0	0.0915023634476004	-20.3420677739887
323	0	98	116	0	68	0	122	2.19804858596763	1	0.0516451064685432	10.1452961872043
324	0	77	146	1	66	0	122	1.09926954703405	1	0.0486959981550389	10.1516009638473
325	0	124	42	1	64	0	122	0.971856004034635	1	0.0789901249275958	10.1599824349267
326	1	5	141	1	63	0	122	1.21844952902757	0	0.0674519547102232	-20.3302642619318
327	1	75	116	0	68	0	120	7.27073500602273	1	0.0888531489645066	10.1452961872043
328	0	87	141	1	66	0	122	3.11239796003792	1	0.069617486788592	10.1516009638473
329	0	121	144	1	64	0	122	0.87984118697932	1	0.091327563623866	10.1599824349267
330	0	90	85	1	63	0	120	2.13784496800508	0	0.0539334453538635	-20.3302642619318
331	1	3	23	0	67	0	120	4.75336380797671	1	0.0548393957004698	10.1482212197032
332	1	103	1	1	66	0	120	1.0076418829849	1	0.0881561602223661	10.1516009638473
333	1	108	75	1	65	0	120	0.819912872975692	1	0.055859283218265	10.1554980453995
334	1	136	67	0	63	0	120	1.16857531201094	1	0.0484886831441627	10.1651321309659
335	1	105	130	0	62	0	120	1.35127763904165	1	0.0877888195837533	10.1710338869944
336	1	12	146	0	60	0	120	1.55006679601502	1	0.097656625144703	10.1854890507786
337	0	140	27	1	59	0	122	3.30105488497065	1	0.0689868088889717	10.1942669347537
338	1	1	119	1	57	0	122	4.23819096002262	0	0.0373853767136744	-20.4311484851376
339	0	70	40	0	62	0	120	2.81705937697552	0	0.0751226715136742	-20.3420677739887
340	1	80	56	0	66	0	120	1.03765784797724	1	0.0191091419283856	0
341	0	100	141	0	64	0	122	1.93731540197041	1	0.0803713674139883	10.1599824349267
342	1	149	63	0	63	0	122	1.23228470596951	0	0.0968582850086063	-20.3302642619318
343	0	60	100	0	67	0	122	0.70019596000202	1	0.110330539980197	10.1482212197032
344	1	67	102	1	66	0	120	0.845265940995887	1	0.0487864735871322	10.1516009638473
345	0	9	94	1	64	0	122	0.968689383997116	1	0.0920094496386174	10.1599824349267
346	0	105	89	1	63	0	120	1.2307806200115	0	0.0609905728016573	-20.3302642619318
347	1	69	34	0	67	0	120	2.86657830799231	1	0.0952550686868662	10.1482212197032
348	0	37	30	0	66	0	122	0.580583643983118	1	0.0920031638583329	10.1516009638473
349	1	140	54	0	65	0	120	0.938628240022808	1	0.0977680727076815	10.1554980453995
350	1	2	40	0	63	0	120	0.842625867982861	1	0.113339168694127	10.1651321309659
351	0	95	132	1	62	0	122	1.78259717702167	1	0.0980520882081243	10.1710338869944
352	1	10	147	1	61	0	122	1.1155443849857	0	0.101206675587005	-20.3555679679896
353	0	136	9	0	65	0	122	0.844600219046697	1	0.0739624983266794	10.1554980453995
354	1	21	95	1	63	0	120	1.63952369301114	1	0.109355865395356	10.1651321309659
355	0	46	63	1	62	0	122	0.578885703987908	1	0.0424830065897304	10.1710338869944
356	0	133	53	0	61	0	122	0.648849839984905	1	0.0409405085815415	10.1777839839948
357	1	90	144	1	60	0	120	2.86055938102072	1	0.105212235884196	10.1854890507786
358	0	110	70	1	59	0	122	1.29407608800102	1	0.0549936571571244	10.1942669347537
359	1	106	34	1	58	0	120	1.50886979303323	1	0.0631829338830764	10.2042476265191
360	0	99	143	1	57	0	122	1.28070449101506	1	0.0541337429228367	10.2155742425688
361	1	142	134	1	56	0	120	0.930906803987455	1	0.04341112602489	10.2284040715341
362	1	70	52	0	55	0	122	0.85011142998701	0	0.0886165039178668	-20.4858193816224
363	0	69	26	0	58	0	122	2.11820854601683	1	0.125062679550683	10.2042476265191
364	1	64	111	1	57	0	120	1.26978326699464	1	0.0879179013515499	10.2155742425688
365	0	120	23	0	56	0	120	1.00818907603389	0	0.0978005988929259	-20.4568081430681
366	1	121	66	0	59	0	120	1.01266236702213	1	0.0568891979260884	10.1942669347537
367	0	111	130	1	58	0	122	1.63207930198405	1	0.104250562611734	10.2042476265191
368	0	116	58	1	57	0	122	3.72914295399096	1	0.0249605269745589	0
369	1	120	53	1	56	0	120	0.880716285028029	1	0.0636484995469239	10.2284040715341
370	0	9	71	0	55	0	120	1.18658421200234	0	0.0783186015396307	-20.4858193816224
371	0	74	28	0	58	0	122	1.51236731401877	1	0.115761019410026	10.2042476265191
372	0	78	89	1	57	0	122	1.32879319199128	1	0.0774963399494932	10.2155742425688
373	1	36	72	0	56	0	120	0.744633191963658	1	0.0631779163854709	10.2284040715341
374	0	137	37	1	55	0	122	0.853370010037906	1	0.0855098075805134	10.2429096908112
375	0	66	3	1	54	0	122	2.699095903954	1	0.0553349758521624	10.2592801621694
376	1	107	47	0	53	0	120	0.7961169629707	1	0.0701828431356717	10.2777223170449
377	1	85	108	1	53	0	120	1.24871889495989	1	0.0776173790431206	10.2777223170449
378	1	20	84	1	52	0	120	1.90042975899996	1	0.0718784528723027	10.2984621447649
379	1	76	5	0	51	0	122	0.813292451959569	0	0.0363794660799545	-20.6434925999369
380	0	28	42	1	53	0	120	1.8978974900092	0	0.0942403175033255	-20.5554446340898
381	1	148	95	1	56	0	120	0.953472970984876	1	0.0590668963659911	10.2284040715341
382	0	135	28	0	55	0	122	1.21761804103153	1	0.0917677358561451	10.2429096908112
383	0	91	79	1	54	0	120	0.926143240008969	0	0.00137770980269409	-0
384	1	12	15	1	57	0	120	1.0202831759816	1	0.0530740226269835	10.2155742425688
385	0	127	121	1	56	0	122	2.97825022100005	1	0.0725337734813136	10.2284040715341
386	0	30	115	0	55	0	122	0.599913230980746	1	0.0827047215435665	10.2429096908112
387	0	124	30	0	54	0	122	1.14196811197326	1	0.0583138078416116	10.2592801621694
388	0	16	46	0	53	0	122	2.14986555901123	1	0.0787829782984809	10.2777223170449
389	1	43	84	1	53	0	120	0.700437901017722	1	0.0895625015629209	10.2777223170449
390	0	83	74	1	52	0	122	1.3815519430209	1	0.0824681701941222	10.2984621447649
391	1	74	46	0	51	0	122	0.603292948973831	0	0.0724368725795956	-20.6434925999369
392	0	62	62	0	53	0	122	2.3369139280403	1	0.0860431310578778	10.2777223170449
393	0	133	16	0	53	0	122	0.81614901201101	1	0.109623502828034	10.2777223170449
394	1	78	38	1	52	0	120	1.01292021700647	1	0.0458859951036869	10.2984621447649
395	1	118	63	1	51	0	120	0.817940434033517	1	0.0770113338153167	10.3217462999684
396	0	57	93	0	50	0	120	2.00276177597698	0	0.0487887123155706	-20.6956874981478
397	0	141	71	0	53	0	122	0.667742835998069	1	0.0563458182214337	10.2777223170449
398	1	123	97	0	52	0	120	0.88683397800196	1	0.140168816084622	10.2984621447649
399	1	104	37	1	51	0	120	0.872664622031152	1	0.11248653883927	10.3217462999684
400	0	107	18	0	50	0	120	3.17841603897978	0	0.103955153041231	-20.6956874981478
401	1	145	12	1	53	0	120	0.957072438031901	1	0.0399528752139161	10.2777223170449
402	1	98	35	1	50	0	120	0.932316835038364	1	0.0630300277697463	10.3478437490739
403	1	49	136	1	48	0	120	1.22355375695042	1	0.0317815607157303	10.409677003319
404	0	41	55	0	45	0	122	0.894063321000431	1	0.0961549244765881	10.5317515270736
405	1	11	139	1	43	0	120	1.67117754003266	1	0.0710168746426233	10.6375143482975
406	1	66	47	1	40	0	122	1.23363083001459	0	0.0381305662148118	-21.6860369404312
407	0	71	113	0	48	0	122	0.661081815022044	1	0.1199354678974	10.409677003319
408	0	53	122	0	46	0	122	1.17703044594964	1	0.0476778504164865	10.4866337303374
409	0	125	142	1	44	0	122	1.07104145496851	1	0.0670818916408138	10.5818819156885
410	1	89	49	1	41	0	120	3.49690646800445	1	0.0424611748943254	10.7674714275007
411	1	84	40	1	39	0	122	3.78516467596637	0	0.119272838383351	-21.8530488315306
412	1	12	144	1	46	0	120	1.65404802199919	1	0.0988415835329282	10.4866337303374
413	0	11	124	1	44	0	122	0.944361251022201	1	0.0766924099266333	10.5818819156885
414	0	138	63	0	42	0	122	1.64834747603163	1	0.0606724673192583	10.6991829678433
415	1	43	62	1	40	0	120	1.01137240295066	1	0.0556402683031856	10.8430184702156
416	0	63	133	0	38	0	122	1.55200286698528	1	0.0374715185528449	11.0187587334124
417	1	103	102	0	36	0	120	2.02287243201863	1	0.0416732336976083	11.2328909210242
418	0	22	42	0	34	0	122	2.21884615701856	1	0.0515077213313415	11.4933327992393
419	1	15	6	0	32	0	122	2.27959494601237	0	0.0648460281291512	-23.6197421158065
420	0	12	146	0	38	0	120	1.19344208098482	0	0.0470611656673148	-22.0375174668248
421	0	90	144	0	43	0	122	0.7430370139773	1	0.0648975598628091	10.6375143482975
422	0	120	65	1	41	0	120	0.622135622019414	0	0.0423336717645939	-21.5349428550014
423	1	29	103	0	47	0	120	1.7465480180108	1	0.0769384369371046	10.4460795824527
424	1	62	94	1	45	0	120	1.94531130098039	1	0.0440733789399534	10.5317515270736
425	1	30	104	0	43	0	122	1.93666029599262	0	0.0356320509742438	-21.275028696595
426	1	136	121	1	48	0	120	1.97615867696004	1	0.0573639443579997	10.409677003319
427	0	17	92	1	47	0	122	0.677391815988813	1	0.0572641904018927	10.4460795824527
428	1	85	80	0	45	0	120	0.743834123015404	1	0.0691455497545209	10.5317515270736
429	1	25	143	0	43	0	122	2.97485642204992	0	0.0713452405857614	-21.275028696595
430	0	113	63	0	48	0	120	0.789151299977675	0	0.0796077868303811	-20.8193540066379
431	1	88	126	1	53	0	120	1.08208166901022	1	0.0602829214965003	10.2777223170449
432	1	5	15	0	51	0	120	1.08407068700762	1	0.135616944220953	10.3217462999684
433	1	16	73	0	50	0	122	1.29351036896696	0	0.0504998137442074	-20.6956874981478
434	1	68	40	1	54	0	120	2.3439213669626	1	0.0683454468269517	10.2592801621694
435	0	135	37	0	53	0	120	1.04702369100414	0	0.0946694224367768	-20.5554446340898
436	1	86	101	1	57	0	120	1.37728133099154	1	0.0523197937082809	10.2155742425688
437	1	148	47	1	56	0	120	0.623529262025841	1	0.0840396883455452	10.2284040715341
438	0	32	65	1	54	0	120	0.740733439044561	0	0.133494228186457	-20.5185603243388
439	0	103	84	0	59	0	120	5.84447197802365	0	0.149191393967999	-20.3885338695075
440	0	110	62	1	63	0	120	1.89397961401846	0	0.0569209435137634	-20.3302642619318
441	0	38	42	0	67	0	120	1.74379424599465	0	0.0608317541847695	-20.2964424394063
442	1	68	76	0	71	0	120	0.815544290002435	1	0.153899515038854	10.1387201003248
443	0	48	90	1	70	0	122	4.30698356695939	1	0.0980417407649337	10.1405926736671
444	0	31	21	0	69	0	120	2.9232436150196	0	0.124816914449346	-20.2855398890023
445	0	124	13	1	73	0	122	0.81141695799306	1	0.0673216380077241	10.1357365713395
446	1	47	47	0	72	0	120	6.28794678405393	1	0.107304145625192	10.1371129716293
447	0	120	21	1	70	0	122	6.94471822300693	1	0.0939178107695436	10.1405926736671
448	0	31	114	1	69	0	122	2.02321066794684	1	0.079053116818252	10.1427699445011
449	1	132	79	1	68	0	120	0.767254116013646	1	0.122435696962802	10.1452961872043
450	1	131	95	1	66	0	120	0.793273929040879	1	0.093170096084917	10.1516009638473
451	1	146	66	0	65	0	122	0.838647706958	0	0.052299813664468	-20.3109960907989
452	1	47	79	0	69	0	120	0.986125225026626	1	0.0280025373866744	10.1427699445011
453	1	83	54	1	68	0	120	0.583647362946067	1	0.0736687830562857	10.1452961872043
454	0	65	11	1	66	0	122	0.998792197962757	1	0.109150075783837	10.1516009638473
455	1	77	17	0	65	0	120	0.979850638948847	1	0.0724536576714103	10.1554980453995
456	1	130	125	1	64	0	120	1.34529541200027	1	0.112261042310401	10.1599824349267
457	1	150	145	0	63	0	120	0.856843449000735	1	0.123079054743218	10.1651321309659
458	0	149	123	0	62	0	120	0.731257583014667	0	0.147536730356395	-20.3420677739887
459	0	126	17	0	65	0	122	0.867361337004695	1	0.0955413108157994	10.1554980453995
460	1	5	59	1	64	0	122	0.734026304038707	0	0.106484655810062	-20.3199648698534
461	0	58	61	1	68	0	122	1.34153291402617	1	0.0673152555766766	10.1452961872043
462	0	18	64	0	66	0	122	0.725473425001837	1	0.0815304291467925	10.1516009638473
463	1	132	130	0	65	0	120	1.40676571603399	1	0.0719149921718921	10.1554980453995
464	1	93	51	1	64	0	120	1.90689524100162	1	0.0304172662216832	10.1599824349267
465	0	38	10	1	63	0	122	1.61966919398401	1	0.14753180388302	10.1651321309659
466	1	53	19	0	62	0	120	1.5514338320354	1	0.150608727524569	10.1710338869944
467	1	30	143	0	61	0	122	1.00651597697288	0	0.0514834586762054	-20.3555679679896
468	0	82	65	0	64	0	122	2.46743511402747	1	0.035847014549162	10.1599824349267
469	0	69	89	1	63	0	122	1.32563274895074	1	0.0899109228052331	10.1651321309659
470	1	22	104	1	62	0	120	0.853358672000468	1	0.103849990947729	10.1710338869944
471	1	98	94	0	61	0	120	1.0883748580236	1	0.058736659867965	10.1777839839948
472	0	11	69	0	60	0	122	1.11440250603482	1	0.0609003660892639	10.1854890507786
473	0	17	11	0	59	0	120	0.923009685997386	0	0.051272178738961	-20.3885338695075
474	1	42	34	1	62	0	120	0.579426872020122	1	0.0439694927680603	10.1710338869944
475	1	94	6	0	61	0	120	1.11409959499724	1	0.104661498010055	10.1777839839948
476	1	7	84	0	60	0	120	0.618215936003253	1	0.0972150257694047	10.1854890507786
477	1	72	75	0	59	0	122	0.975008674024139	0	0.0912381031046841	-20.3885338695075
478	0	115	116	1	62	0	122	1.07743500499055	1	0.084250681090933	10.1710338869944
479	1	125	4	0	61	0	120	1.37600310699781	1	0.0779030131331086	10.1777839839948
480	1	27	115	1	60	0	120	1.38975770398974	1	0.117088661805095	10.1854890507786
481	0	18	139	0	59	0	122	0.891563617973588	1	0.0291027346696595	10.1942669347537
482	1	57	110	1	58	0	122	1.06920543598244	0	0.0640718048566742	-20.4084952530382
483	0	148	71	0	61	0	122	0.727534789999481	1	0.129586105782985	10.1777839839948
484	1	24	45	1	60	0	120	0.9591059749946	1	0.0498922424174178	10.1854890507786
485	0	103	44	1	59	0	122	0.950325289973989	1	0.0621319773332208	10.1942669347537
486	1	109	18	0	58	0	122	0.589999165036716	0	0.0951520467685731	-20.4084952530382
487	1	150	145	1	61	0	120	0.723103471973445	1	0.0784158099682873	10.1777839839948
488	1	106	6	0	60	0	122	0.692208868975285	0	0.063522027594999	-20.3709781015572
489	1	41	8	1	63	0	122	1.18146017403342	0	0.0657679781323025	-20.3302642619318
490	0	130	93	0	65	0	120	1.01893740700325	0	0.131574097557712	-20.3109960907989
491	0	1	131	0	68	0	122	3.32659225497628	1	0.114440820344934	10.1452961872043
492	0	105	149	1	67	0	120	2.0388905639993	0	0.105676170696566	-20.2964424394063
493	0	143	88	0	69	0	122	2.36207224504324	1	0.108360751295583	10.1427699445011
494	0	26	100	0	69	0	122	0.688929305004422	1	0.0953102412059244	10.1427699445011
495	1	97	3	1	68	0	122	0.810428320022766	0	0.0826359506997107	-20.2905923744087
496	0	92	88	1	70	0	122	0.758666056965012	1	0.12206240428883	10.1405926736671
497	1	67	147	0	70	0	120	1.21926710102707	1	0.132328398030015	10.1405926736671
498	1	120	51	0	69	0	120	1.0347290780046	1	0.0608927715013068	10.1427699445011
499	0	102	48	0	68	0	120	1.59082821803167	0	0.0523457357055772	-20.2905923744087
500	0	48	120	1	70	0	122	1.60459379298845	1	0.0763341285246166	10.1405926736671
