Trial	Gender_Face1	Face1_nb	Face2_nb	Right_left_flip	Nb_Bubbles	Overlap_Target	Response	RT	Accuracy	Simi2Target	Trial_Reward
1	0	117	26	1	74	0	120	3.24374216300203	1	0	0
2	1	137	91	0	71	0	120	3.40124099404784	0	0	0
3	1	62	125	1	79	0	122	2.59936641599052	1	0	0
4	0	14	68	1	77	0	120	3.86109367298195	1	0	0
5	1	116	117	0	75	0	120	2.37569395301398	0	0	0
6	1	82	42	1	82	0	122	2.61343767400831	1	0	0
7	1	60	25	0	80	0	122	1.8732486939989	1	0	0
8	1	96	100	0	78	0	122	2.67419909703312	1	0	0
9	1	130	12	1	75	0	120	2.64374079101253	0	0	0
10	1	104	5	1	82	0	122	2.12647743296111	1	0	0
11	0	49	45	0	80	0	120	5.63494570698822	1	0	0
12	0	63	34	0	78	0	120	2.23249228100758	1	0	0
13	1	10	123	1	76	0	122	1.89199674897827	1	0	0
14	0	124	15	1	74	0	120	1.72437216702383	1	0	0
15	1	52	149	1	72	0	122	1.38916937302565	1	0	0
16	0	39	92	1	70	0	120	1.99366312497295	1	0	0
17	0	134	103	0	68	0	120	1.0944767750334	1	0	0
18	1	116	66	0	66	0	122	1.75137992698001	1	0	0
19	0	139	126	0	64	0	120	2.10220890596975	1	0	0
20	0	11	127	1	63	0	120	0.774044394027442	1	0	0
21	1	92	94	1	61	0	122	0.988110270001926	1	0	0
22	0	54	35	0	59	0	120	1.44885266001802	1	0	0
23	1	48	112	0	57	0	122	1.68327944399789	1	0	0
24	0	113	56	1	56	0	120	1.56551635701908	1	0	0
25	1	119	131	1	54	0	122	1.41134590702131	1	0	0
26	1	147	99	1	52	0	120	2.95256328396499	0	0	0
27	0	92	89	0	57	0	120	0.997941119014286	1	0	0
28	0	58	57	1	56	0	120	0.891317050962243	1	0	0
29	0	49	4	1	54	0	120	1.65172580699436	1	0	0
30	0	74	71	1	52	0	120	0.773880610009655	1	0	0
31	1	102	69	1	51	0	122	1.85145731497323	1	0	0
32	1	21	7	0	49	0	120	1.62192296201829	0	0	0
33	1	123	100	0	54	0	122	1.64198488200782	1	0	0
34	0	1	10	1	52	0	120	1.06907802796923	1	0	0
35	0	90	18	0	51	0	120	1.64741913200123	1	0	0
36	0	147	34	0	50	0	120	0.990609225002117	1	0	0
37	1	58	127	1	48	0	122	1.23209573101485	1	0	0
38	0	146	26	0	47	0	120	3.20284708804684	1	0	0
39	1	63	105	0	45	0	120	4.8631549939746	0	0	0
40	0	52	58	1	49	0	120	2.18534178601112	1	0	0
41	1	138	120	0	48	0	122	1.36644904100103	1	0	0
42	1	97	126	1	47	0	122	3.12382771598641	1	0	0
43	1	51	91	0	45	0	122	2.98788844898809	1	0	0
44	1	49	46	0	44	0	122	3.6968124830164	1	0	0
45	1	67	25	1	43	0	122	1.00129134400049	1	0	0
46	0	39	40	0	42	0	120	0.805555592000019	1	0	0
47	1	147	55	1	40	0	120	1.9143896389869	0	0	0
48	0	9	63	0	44	0	120	1.55453842697898	1	0	0
49	1	76	43	1	43	0	122	4.88144921098137	1	0	0
50	0	6	130	0	42	0	120	6.73986931901891	1	0	0
51	1	142	49	0	40	0	120	1.36179687501863	0	0	0
52	0	57	106	1	44	0	120	2.26349565299461	1	0	0
53	0	142	37	0	43	0	120	1.96146580995992	1	0	0
54	0	138	15	0	42	0	120	2.16011613199953	1	0	0
55	1	77	73	0	40	0	120	2.2216680769925	0	0	0
56	0	129	38	1	44	0	120	1.32112353300909	1	0	0
57	0	103	85	0	43	0	120	2.23379713500617	1	0	0
58	0	146	14	1	42	0	122	1.06127951201051	0	0	0
59	0	75	25	0	45	0	120	5.48678681196179	1	0	0
60	1	33	112	0	44	0	122	2.02399749995675	1	0	0
61	0	91	56	0	43	0	120	1.02672819700092	1	0	0
62	1	45	46	1	41	0	122	1.01537499803817	1	0	0
63	1	92	17	0	40	0	122	1.94740216201171	1	0	0
64	1	18	87	1	39	0	122	3.58550247503445	1	0	0
65	0	29	12	1	38	0	120	1.11052283894969	1	0	0
66	1	91	102	0	37	0	120	3.57565748598427	0	0	0
67	1	75	123	1	40	0	120	2.42869861499639	0	0	0
68	0	69	112	1	43	0	120	2.07211606600322	1	0	0
69	1	33	90	0	42	0	120	1.2094159029657	0	0	0
70	0	126	59	1	46	0	120	0.894660810998175	1	0	0
71	1	17	105	1	45	0	122	1.64725868502865	1	0	0
72	1	95	106	1	44	0	122	0.865596592018846	1	0	0
73	0	48	79	1	43	0	120	1.45213387801778	1	0	0
74	1	85	28	0	42	0	122	1.51799065194791	1	0	0
75	0	81	106	1	41	0	120	2.58238341397373	1	0	0
76	0	33	140	0	40	0	120	6.15569021902047	1	0	0
77	1	17	103	1	39	0	122	2.29684107896173	1	0	0
78	1	102	29	0	38	0	122	1.5144153360161	1	0	0
79	0	11	53	1	37	0	120	3.59233916702215	1	0	0
80	1	88	43	0	36	0	122	1.85478311096085	1	0	0
81	0	40	102	1	35	0	120	1.68908016500063	1	0	0
82	1	81	101	0	34	0	122	6.26665662997402	1	0	0
83	0	25	72	0	34	0	120	2.03694508195622	1	0	0
84	1	119	134	1	33	0	122	0.815681012987625	1	0	0
85	0	95	82	0	32	0	120	3.33108209498459	1	0	0
86	1	23	91	0	31	0	120	1.4027051810408	0	0	0
87	1	73	100	0	34	0	122	2.95053450402338	1	0	0
88	1	62	17	1	33	0	120	2.7013596870238	0	0	0
89	1	77	13	0	35	0	120	1.3897528059897	0	0	0
90	1	23	11	1	38	0	120	6.01114499504911	0	0	0
91	0	101	58	1	40	0	120	1.00787373399362	1	0	0
92	1	71	28	0	39	0	120	2.85204703902127	0	0	0
93	1	141	39	0	42	0	120	0.814457475033123	0	0	0
94	0	55	122	0	44	0	120	1.35346101399045	1	0	0
95	0	133	144	0	43	0	120	1.11181468795985	1	0	0
96	1	108	99	0	43	0	122	1.24789212102769	1	0	0
97	1	146	138	1	42	0	120	1.21900866396027	0	0	0
98	0	25	35	0	44	0	120	1.27960639802041	1	0	0
99	1	56	9	1	43	0	122	5.3440366939758	1	0	0
100	1	77	37	1	42	0	122	0.783890735008754	1	0	0
101	1	76	7	1	42	0	122	4.47217520902632	1	0	0
102	0	78	54	1	39	0	120	0.813942528038751	1	0	0
103	1	94	5	1	37	0	122	3.20987818902358	1	0	0
104	1	80	85	0	34	0	120	2.95236349001061	0	0	0
105	1	32	10	1	42	0	120	2.36666218802566	0	0	0
106	0	134	85	0	49	0	120	2.81279476301279	1	0	0
107	1	95	83	1	47	0	122	6.90491082600784	1	0	0
108	1	48	57	0	45	0	120	1.11289562500315	0	0	0
109	0	82	132	0	52	0	120	1.61684567201883	1	0	0
110	1	69	34	1	50	0	120	6.06937309500063	0	0	0
111	1	90	96	0	56	0	122	1.0064393330249	1	0	0
112	1	110	131	1	54	0	120	2.71510948496871	0	0	0
113	0	52	122	0	59	0	120	4.44332380598644	1	0	0
114	1	90	68	0	58	0	122	0.957969856041018	1	0	0
115	0	120	67	0	56	0	120	7.16487738897558	1	0	0
116	1	93	150	0	54	0	120	3.50734392699087	0	0	0
117	0	116	40	0	59	0	120	3.05072778300382	1	0	0
118	0	7	45	1	58	0	120	1.27791487699142	1	0	0
119	1	140	124	1	56	0	122	3.67914533999283	1	0	0
120	1	99	72	0	54	0	120	2.1125366850174	0	0	0
121	0	57	70	0	59	0	120	1.08878829400055	1	0	0
122	1	36	117	0	58	0	122	1.25008981802966	1	0	0
123	1	93	65	0	56	0	122	2.65993311500642	1	0	0
124	1	11	76	1	55	0	122	2.70257519703591	1	0	0
125	0	9	13	0	53	0	120	1.42280703899451	1	0	0
126	0	109	16	0	52	0	120	1.24368907598546	1	0	0
127	1	116	121	1	50	0	122	1.95726109098177	1	0	0
128	0	18	90	0	49	0	120	1.44422400498297	1	0	0
129	1	9	27	0	47	0	122	2.51119390001986	1	0	0
130	1	29	59	1	46	0	120	3.33571386500262	0	0	0
131	1	102	62	1	50	0	120	3.84619956597453	0	0	0
132	1	71	27	0	54	0	122	0.889162721985485	1	0	0
133	0	111	72	1	53	0	120	1.44319471297786	1	0	0
134	1	126	70	1	51	0	122	1.693921676022	1	0	0
135	0	64	105	0	50	0	120	2.72701526503079	1	0	0
136	1	42	38	0	49	0	122	2.67005308700027	1	0	0
137	1	149	89	0	47	0	120	0.943630010006018	0	0	0
138	1	64	26	0	51	0	122	1.03127451101318	1	0	0
139	0	126	30	1	50	0	120	1.92991565604461	1	0	0
140	1	85	13	1	49	0	122	7.80152457597433	1	0	0
141	1	43	143	0	48	0	120	10.8455456899828	0	0	0
142	1	130	1	0	51	0	122	1.3291611589957	1	0	0
143	0	80	120	1	50	0	120	1.99981853895588	1	0	0
144	1	39	148	1	49	0	122	3.41324246302247	1	0	0
145	1	105	144	0	48	0	120	1.30526243400527	0	0	0
146	1	78	144	1	51	0	122	3.48879644001136	1	0	0
147	1	112	134	1	50	0	122	1.62598882499151	1	0	0
148	0	7	90	1	49	0	120	1.76623271399876	1	0	0
149	1	79	13	1	48	0	122	1.78821309300838	1	0	0
150	1	92	81	1	47	0	122	0.792751547996886	1	0	0
151	0	145	54	1	46	0	120	2.98996732902015	1	0	0
152	0	114	76	1	44	0	122	1.53942671802361	0	0	0
153	1	44	83	0	48	0	122	4.93780746398261	1	0	0
154	1	109	21	1	47	0	122	1.31293118098984	1	0	0
155	0	93	129	1	45	0	122	2.24892913200893	0	0	0
156	1	56	137	0	49	0	120	2.5559468769934	0	0	0
157	1	42	52	0	52	0	122	1.64164000295568	1	0	0
158	1	1	20	0	51	0	122	1.86099640803877	1	0	0
159	1	52	58	1	50	0	122	1.63132052100264	1	0	0
160	0	55	82	1	49	0	120	0.94705363799585	1	0	0
161	0	150	87	0	48	0	120	1.64999945304589	1	0	0
162	1	60	97	1	47	0	122	1.97276538598817	1	0	0
163	0	53	28	1	46	0	122	1.83344563900027	0	0	0
164	1	120	12	0	49	0	120	3.53266260999953	0	0	0
165	1	103	123	0	52	0	122	1.65210110403132	1	0	0
166	1	145	87	0	51	0	122	0.934952809009701	1	0	0
167	1	9	112	1	50	0	120	1.80374428903451	0	0	0
168	0	22	93	0	53	0	120	4.22619443497388	1	0	0
169	0	95	39	1	52	0	122	4.09408799704397	0	0	0
170	0	12	100	0	55	0	120	1.22270101000322	1	0	0
171	0	117	79	1	54	0	120	2.20266099600121	1	0	0
172	0	141	141	1	53	0	120	0.783347812015563	1	0	0
173	1	111	48	1	52	0	122	1.31699749099789	1	0	0
174	0	135	34	1	51	0	120	1.50838031899184	1	0	0
175	0	39	72	1	50	0	120	0.988262693979777	1	0	0
176	1	73	117	1	49	0	122	2.65736026101513	1	0	0
177	1	34	121	0	48	0	120	1.33132690301863	0	0	0
178	1	2	133	0	51	0	120	3.99407973099733	0	0	0
179	0	42	148	0	54	0	120	3.88779104303103	1	0	0
180	0	129	147	0	53	0	120	1.6000117630465	1	0	0
181	1	97	72	1	52	0	122	2.40491951396689	1	0	0
182	1	73	88	1	51	0	122	1.82526047597639	1	0	0
183	0	49	20	1	50	0	122	2.43653479899513	0	0	0
184	0	69	34	0	53	0	120	1.46352856804151	1	0	0
185	1	125	4	0	52	0	120	2.00981954397867	0	0	0
186	0	60	100	1	54	0	120	5.23808269802248	1	0	0
187	0	105	92	1	53	0	120	2.18437199899927	1	0	0
188	0	126	28	0	53	0	120	1.39819951698883	1	0	0
189	0	76	32	1	52	0	120	4.18564248399343	1	0	0
190	0	120	74	1	51	0	120	2.84765691898065	1	0	0
191	1	55	89	1	50	0	122	0.786458952003159	1	0	0
192	1	135	8	1	49	0	122	1.77618684701156	1	0	0
193	1	11	59	1	49	0	122	1.48488231602823	1	0	0
194	0	64	15	1	48	0	120	1.63050042500254	1	0	0
195	0	72	90	0	47	0	120	2.17736792605137	1	0	0
196	1	40	116	0	46	0	120	3.07119230198441	0	0	0
197	1	107	48	0	49	0	122	0.960779172019102	1	0	0
198	0	122	15	0	48	0	120	0.951248213998042	1	0	0
199	1	34	35	0	47	0	122	1.62947517505381	1	0	0
200	1	79	143	1	46	0	120	1.78559772402514	0	0	0
201	0	7	119	0	49	0	120	2.75149168400094	1	0	0
202	1	22	105	0	46	0	122	2.77042765001534	1	0	0
203	1	100	129	0	44	0	122	0.936349984956905	1	0	0
204	1	15	135	0	41	0	122	5.07267334999051	1	0	0
205	1	133	12	1	38	0	122	2.74647734104656	1	0	0
206	1	116	8	0	36	0	120	2.20120977703482	0	0	0
207	0	26	19	0	44	0	120	1.43780081998557	1	0	0
208	1	124	92	0	41	0	120	7.5440386509872	0	0	0
209	0	18	142	0	49	0	120	1.97480849100975	1	0	0
210	1	127	92	0	47	0	120	1.52466262300732	0	0	0
211	0	40	72	0	54	0	120	4.9650022329879	1	0	0
212	1	38	114	1	52	0	122	1.16324756800896	1	0	0
213	1	135	138	1	50	0	120	4.60078309901292	0	0	0
214	1	8	12	1	56	0	120	2.30933212395757	0	0	0
215	0	7	129	0	62	0	120	1.325373544998	1	0	0
216	0	12	63	1	60	0	120	1.6843440750381	1	0	0
217	1	59	61	0	58	0	122	1.19065606797813	1	0	0
218	1	134	137	1	56	0	120	2.18853690894321	0	0	0
219	1	116	94	1	62	0	120	2.1297217910178	0	0	0
220	1	128	67	0	67	0	120	1.68071835499723	0	0	0
221	0	7	34	0	72	0	120	1.60239339299733	1	0	0
222	1	79	42	1	71	0	120	4.80596390494611	0	0	0
223	1	45	32	0	76	0	122	1.84206180198817	1	0	0
224	1	45	33	0	74	0	122	2.38096829701681	1	0	0
225	1	48	91	1	73	0	122	0.858328239002731	1	0	0
226	1	80	86	1	71	0	122	3.19749691500328	1	0	0
227	1	6	118	0	70	0	122	2.73873281897977	1	0	0
228	1	3	110	0	68	0	120	2.32898187596584	0	0	0
229	1	15	79	0	73	0	120	1.65587631904054	0	0	0
230	0	91	119	1	77	0	120	5.51518256199779	1	0	0
231	1	48	95	1	76	0	122	1.03524779097643	1	0	0
232	1	12	48	0	74	0	120	4.60658038902329	0	0	0
233	1	55	16	0	79	0	122	1.79399322898826	1	0	0
234	0	129	23	0	77	0	120	4.14270949101774	1	0	0
235	0	130	54	0	76	0	120	2.506829268008	1	0	0
236	1	24	95	1	74	0	122	3.89375911100069	1	0	0
237	0	90	9	1	73	0	120	4.76708182395669	1	0	0
238	1	65	45	1	72	0	122	2.45255381404422	1	0	0
239	0	97	115	0	70	0	120	3.77462519699475	1	0	0
240	0	34	150	1	69	0	120	3.35630484903231	1	0	0
241	0	9	140	0	68	0	120	1.4900875769672	1	0	0
242	1	89	25	0	66	0	122	2.25271968496963	1	0	0
243	1	61	72	1	65	0	120	3.52560374001041	0	0	0
244	0	143	17	0	69	0	120	1.49323567299871	1	0	0
245	1	132	49	0	68	0	122	2.02290562400594	1	0	0
246	1	8	108	1	67	0	120	1.61785484600114	0	0	0
247	1	147	97	1	70	0	120	5.93457458500052	0	0	0
248	0	33	61	0	74	0	122	6.01419649395393	0	0	0
249	0	148	100	1	78	0	120	1.155571919051	1	0	0
250	1	8	38	0	77	0	120	2.98413048399379	0	0	0
251	0	79	93	0	80	0	120	1.2215052350075	1	0	0
252	0	150	20	1	79	0	120	2.3850608090288	1	0	0
253	1	45	135	1	78	0	120	3.47019476798596	0	0	0
254	1	78	140	0	82	0	122	1.91119517799234	1	0	0
255	0	75	147	1	80	0	120	6.19179865700426	1	0	0
256	0	132	60	0	79	0	120	1.42790543002775	1	0	0
257	1	111	145	1	78	0	120	1.46440644003451	0	0	0
258	1	143	140	1	82	0	122	3.13737711496651	1	0	0
259	1	138	141	1	80	0	122	2.69537074799882	1	0	0
260	1	136	43	0	79	0	122	3.68100979400333	1	0	0
261	1	28	139	0	78	0	122	1.41052535403287	1	0	0
262	1	138	93	0	77	0	122	4.44718309503514	1	0	0
263	0	69	35	1	76	0	120	1.38609961600741	1	0	0
264	0	26	12	0	75	0	120	2.40740764897782	1	0	0
265	0	139	95	1	74	0	120	1.17185833503027	1	0	0
266	1	146	135	1	73	0	120	2.45819941500667	0	0	0
267	1	29	146	1	76	0	120	2.22754907200579	0	0	0
268	1	103	128	1	79	0	122	3.62271876801969	1	0	0
269	0	7	58	0	78	0	120	1.78697607398499	1	0	0
270	1	33	48	1	77	0	122	2.07898927101633	1	0	0
271	1	111	65	0	76	0	120	2.20892867899965	0	0	0
272	1	7	107	1	79	0	122	1.3564159249654	1	0	0
273	1	19	150	1	78	0	122	1.25118604296586	1	0	0
274	1	144	6	0	77	0	122	6.32652865798445	1	0	0
275	0	58	112	0	76	0	120	1.90952620998723	1	0	0
276	0	71	42	0	75	0	120	3.22949836699991	1	0	0
277	1	89	70	1	74	0	122	1.58526925399201	1	0	0
278	1	45	9	0	73	0	122	2.23043294704985	1	0	0
279	0	66	139	1	72	0	120	4.19412103900686	1	0	0
280	1	66	100	0	71	0	120	3.67061892297352	0	0	0
281	0	53	81	0	74	0	120	2.21646507800324	1	0	0
282	1	121	110	0	73	0	120	2.79591632599477	0	0	0
283	1	30	18	0	76	0	120	1.40920694300439	0	0	0
284	0	34	67	1	78	0	120	1.66940454399446	1	0	0
285	1	106	16	1	78	0	120	3.20686803903664	0	0	0
286	0	145	147	1	80	0	120	1.29910503601423	1	0	0
287	0	43	97	1	79	0	120	1.56421219394542	1	0	0
288	1	22	120	1	79	0	120	2.96989970497089	0	0	0
289	0	63	56	1	81	0	120	1.19176738604438	1	0	0
290	0	91	120	1	80	0	120	2.22881441703066	1	0	0
291	0	46	72	1	79	0	120	2.24852056003874	1	0	0
292	1	141	52	0	79	0	122	3.54612299602013	1	0	0
293	0	41	100	1	78	0	120	1.12050103599904	1	0	0
294	0	128	82	0	77	0	120	2.75291831698269	1	0	0
295	1	62	24	0	76	0	122	0.79114407999441	1	0	0
296	1	18	77	1	75	0	122	1.28421112400247	1	0	0
297	1	43	137	0	75	0	120	3.72641410201322	0	0	0
298	0	117	18	0	77	0	120	1.56548837403534	1	0	0
299	0	74	104	0	76	0	120	1.45120479998877	1	0	0
300	1	35	145	0	75	0	120	5.52610349596944	0	0	0
