Trial	Gender_Face1	Face1_nb	Face2_nb	Right_left_flip	Nb_Bubbles	Overlap_Target	Response	RT	Accuracy	Simi2Target	Trial_Reward
1	0	96	110	0	60	0	122	0.76153886999964	1	0	0
2	0	52	90	0	57	0	122	0.848609319000388	1	0	0
3	0	129	123	0	55	0	122	0.648780104000252	1	0	0
4	1	131	8	1	52	0	122	2.34933783800079	0	0	0
5	0	105	148	1	60	0	122	1.29038997699899	1	0	0
6	0	100	100	0	58	0	122	0.595512703999702	1	0	0
7	1	137	148	0	56	0	120	2.57464081499893	1	0	0
8	0	27	74	0	53	0	122	0.519201275001251	1	0	0
9	0	30	83	0	51	0	122	0.632192691000455	1	0	0
10	1	29	130	1	49	0	122	1.57235359100014	0	0	0
11	0	25	129	0	56	0	122	1.05029729800117	1	0	0
12	1	122	45	1	54	0	120	0.941944397000043	1	0	0
13	1	71	20	0	51	0	122	1.21417754100003	0	0	0
14	0	135	108	1	58	0	122	1.54640160199961	1	0	0
15	1	50	143	0	56	0	120	0.69925533300011	1	0	0
16	0	104	142	1	54	0	122	0.78786111699992	1	0	0
17	0	142	114	1	52	0	122	1.12260376499944	1	0	0
18	0	21	45	1	50	0	122	1.86746882199986	1	0	0
19	1	84	129	0	48	0	120	0.782393993000369	1	0	0
20	0	110	85	1	46	0	120	2.27610821100097	0	0	0
21	1	29	60	0	52	0	122	9.50267349200112	0	0	0
22	0	68	38	1	58	0	122	1.37650881700029	1	0	0
23	0	140	94	0	56	0	122	2.07033411299926	1	0	0
24	0	86	88	0	54	0	122	1.52189909799927	1	0	0
25	0	27	134	1	53	0	122	3.70667751499968	1	0	0
26	1	38	29	0	51	0	120	3.3074306769995	1	0	0
27	0	94	1	1	49	0	122	0.732757895000759	1	0	0
28	0	84	63	1	48	0	122	0.893436672000462	1	0	0
29	1	100	139	1	46	0	120	2.28739823900105	1	0	0
30	0	42	98	1	45	0	120	2.40038665700013	0	0	0
31	0	33	103	1	49	0	122	0.837877603000379	1	0	0
32	1	145	89	1	48	0	120	1.1698558879998	1	0	0
33	1	56	97	1	46	0	122	0.752384192999671	0	0	0
34	0	59	109	1	51	0	122	1.62375685599909	1	0	0
35	1	143	68	1	49	0	120	1.14898978400015	1	0	0
36	1	77	31	0	48	0	120	1.03572357800113	1	0	0
37	1	12	3	0	46	0	120	0.847850840000319	1	0	0
38	0	20	70	0	45	0	122	2.49931475800076	1	0	0
39	0	14	132	0	44	0	122	0.844639334998647	1	0	0
40	1	111	24	0	42	0	122	0.928917588000331	0	0	0
41	1	132	103	0	46	0	122	0.880514582000615	0	0	0
42	0	149	140	0	51	0	122	0.955844780000916	1	0	0
43	1	39	150	1	49	0	120	1.57079606700063	1	0	0
44	1	29	17	0	48	0	120	1.23417087300004	1	0	0
45	0	27	31	1	47	0	122	1.56571210699985	1	0	0
46	1	93	112	0	45	0	120	0.725172464000934	1	0	0
47	0	32	115	0	44	0	122	3.83773779200055	1	0	0
48	1	118	97	1	43	0	120	0.945055279000371	1	0	0
49	0	104	96	0	42	0	122	1.8812524169989	1	0	0
50	1	68	124	1	40	0	120	2.87560091399973	1	0	0
51	0	21	101	1	39	0	122	1.30168396199952	1	0	0
52	0	41	43	1	38	0	122	1.03498473599939	1	0	0
53	0	32	81	1	37	0	122	0.79517655500058	1	0	0
54	1	30	91	1	36	0	122	1.56810111900086	0	0	0
55	0	116	62	0	39	0	122	1.27932998100005	1	0	0
56	1	138	32	0	38	0	122	0.768993140998646	0	0	0
57	0	130	111	0	41	0	122	1.74376662600116	1	0	0
58	1	55	111	1	40	0	120	1.88726984400091	1	0	0
59	0	21	27	0	39	0	122	0.977055973000461	1	0	0
60	0	36	31	0	38	0	122	1.66373532600119	1	0	0
61	1	49	131	0	37	0	120	1.38652170200112	1	0	0
62	0	129	139	1	36	0	122	1.04824111299968	1	0	0
63	0	70	101	1	35	0	122	0.915390373000264	1	0	0
64	1	67	65	0	34	0	120	0.780721054999958	1	0	0
65	0	4	56	1	33	0	122	1.02667977500096	1	0	0
66	0	2	33	1	32	0	122	1.88696185000117	1	0	0
67	1	96	54	1	31	0	120	1.73743878299865	1	0	0
68	0	121	25	0	30	0	122	0.978163507999852	1	0	0
69	0	96	128	1	29	0	122	0.688538746999257	1	0	0
70	1	1	14	1	28	0	120	0.986391403001107	1	0	0
71	1	8	15	0	27	0	122	1.06438369699936	0	0	0
72	1	135	9	0	30	0	120	0.81221894599912	1	0	0
73	0	103	13	1	29	0	122	1.08851547999984	1	0	0
74	1	93	76	1	28	0	120	1.11494562199914	1	0	0
75	0	90	98	1	27	0	122	1.40349165900079	1	0	0
76	1	150	119	0	26	0	120	2.99255788700066	1	0	0
77	0	118	74	1	25	0	120	0.83814682800039	0	0	0
78	0	146	102	0	28	0	122	0.815444347999801	1	0	0
79	0	119	106	0	27	0	122	0.686667433999901	1	0	0
80	1	82	45	0	26	0	120	1.07281359899935	1	0	0
81	0	125	82	1	25	0	120	1.04331899700082	0	0	0
82	1	44	140	1	28	0	122	1.05478414899881	0	0	0
83	1	69	94	1	30	0	120	0.857464263999645	1	0	0
84	0	4	51	0	29	0	122	1.10873041999912	1	0	0
85	1	48	11	0	29	0	120	1.029669775	1	0	0
86	1	62	109	1	28	0	120	1.1273004020004	1	0	0
87	0	81	113	0	27	0	120	1.1867148780002	0	0	0
88	1	59	108	1	29	0	120	1.48056109400022	1	0	0
89	1	14	137	1	29	0	120	1.13097559299968	1	0	0
90	1	39	100	1	28	0	120	1.21924651799964	1	0	0
91	1	61	124	0	27	0	120	0.984469475000878	1	0	0
92	1	125	7	1	26	0	120	1.47800787199958	1	0	0
93	1	110	54	0	25	0	120	1.92928583499997	1	0	0
94	0	50	50	1	25	0	122	1.00103232900074	1	0	0
95	1	43	116	1	24	0	122	2.24604712899963	0	0	0
96	0	12	145	0	26	0	120	3.17080219099989	0	0	0
97	1	48	6	0	28	0	122	1.1687616579984	0	0	0
98	0	54	95	0	31	0	122	1.04771354299919	1	0	0
99	1	103	45	0	30	0	120	2.0006786619997	1	0	0
100	0	94	100	1	29	0	122	1.12000284200076	1	0	0
101	1	116	69	1	28	0	122	1.53311840400056	0	0	0
102	1	24	136	0	36	0	120	0.885343268000724	1	0	0
103	1	101	16	0	33	0	120	2.86657001700041	1	0	0
104	0	14	116	0	31	0	122	0.903657095001108	1	0	0
105	1	83	17	0	29	0	120	1.24074687299981	1	0	0
106	1	44	8	0	27	0	122	0.924231967999731	0	0	0
107	1	10	51	0	34	0	120	3.97378232700066	1	0	0
108	0	150	122	0	32	0	122	1.34838360300091	1	0	0
109	0	18	20	0	29	0	122	2.14847520399962	1	0	0
110	0	27	137	1	27	0	122	1.23544306400072	1	0	0
111	1	94	98	0	25	0	122	1.10341636300109	0	0	0
112	0	25	49	0	32	0	120	1.48592878900308	0	0	0
113	1	114	121	1	38	0	120	0.658907167002326	1	0	0
114	1	86	14	0	36	0	120	2.5981143550016	1	0	0
115	1	127	116	0	34	0	120	2.99525623899899	1	0	0
116	0	29	33	1	32	0	122	3.79289215899917	1	0	0
117	0	136	86	1	30	0	122	1.45398144099818	1	0	0
118	1	132	84	0	29	0	120	2.91353558099945	1	0	0
119	0	47	17	1	27	0	122	3.64166511900112	1	0	0
120	0	127	28	0	25	0	122	1.14199944700158	1	0	0
121	0	43	86	0	23	0	122	1.04540092099705	1	0	0
122	1	126	53	0	22	0	120	0.896780702998512	1	0	0
123	1	59	27	0	20	0	120	1.71503366700199	1	0	0
124	1	56	18	1	18	0	122	1.11539982799877	0	0	0
125	0	112	124	1	23	0	122	2.31424947499909	1	0	0
126	1	72	61	0	22	0	122	0.686129944999266	0	0	0
127	1	56	118	1	27	0	122	0.99231253799735	0	0	0
128	0	76	86	0	31	0	122	1.5494239389991	1	0	0
129	0	54	1	1	30	0	122	1.86119273000077	1	0	0
130	0	3	91	1	28	0	122	1.09568076099822	1	0	0
131	0	63	63	1	27	0	122	1.35328670400122	1	0	0
132	0	126	14	0	25	0	122	0.849150019999797	1	0	0
133	1	140	144	0	24	0	120	1.10544997399847	1	0	0
134	0	138	138	1	22	0	122	1.0692567469996	1	0	0
135	0	82	41	0	21	0	122	2.26478988300005	1	0	0
136	1	54	122	0	20	0	120	1.20297010600189	1	0	0
137	0	48	96	0	18	0	122	3.73277575999964	1	0	0
138	1	43	144	0	17	0	120	3.40044867599863	1	0	0
139	0	6	54	1	16	0	120	1.45418759499807	0	0	0
140	1	94	61	0	20	0	120	1.62539357399874	1	0	0
141	0	97	80	0	18	0	122	1.12198185500165	1	0	0
142	1	74	76	0	17	0	120	1.14996496300228	1	0	0
143	1	21	36	0	16	0	120	1.14932464799858	1	0	0
144	1	49	18	0	14	0	122	1.34631029000229	0	0	0
145	0	11	16	1	18	0	122	2.17991259599876	1	0	0
146	1	32	124	0	17	0	120	1.08230279800046	1	0	0
147	0	37	37	0	16	0	120	2.99652054900071	0	0	0
148	0	14	8	0	20	0	120	5.01790037200044	0	0	0
149	0	106	63	1	23	0	122	2.98187521900036	1	0	0
150	0	16	128	1	22	0	122	2.89195806000134	1	0	0
151	1	128	33	0	21	0	120	2.42965673299841	1	0	0
152	1	50	79	1	20	0	120	0.968990084002144	1	0	0
153	1	34	51	0	19	0	120	1.76784829700046	1	0	0
154	1	13	14	0	17	0	122	1.21484955999767	0	0	0
155	1	146	67	0	21	0	122	0.764377393999894	0	0	0
156	1	10	10	1	24	0	120	0.882553055998869	1	0	0
157	0	12	135	1	23	0	120	1.67392650600232	0	0	0
158	0	144	46	0	26	0	122	2.53588723199937	1	0	0
159	0	70	33	1	25	0	122	0.879945420001604	1	0	0
160	0	41	37	0	24	0	122	0.833500110002205	1	0	0
161	0	12	57	1	23	0	122	0.958749678000459	1	0	0
162	1	54	50	0	22	0	120	3.25326068199865	1	0	0
163	0	54	56	1	21	0	120	1.18200531399998	0	0	0
164	0	82	134	0	24	0	120	1.47906354500083	0	0	0
165	1	114	139	1	27	0	120	1.28930175400092	1	0	0
166	0	19	93	1	26	0	120	4.58685047300241	0	0	0
167	1	97	8	1	29	0	120	1.52616042199952	1	0	0
168	0	75	20	0	28	0	122	0.961061507998238	1	0	0
169	1	121	109	0	27	0	120	0.824094294999668	1	0	0
170	0	129	22	0	26	0	122	1.22867662900171	1	0	0
171	0	146	18	1	25	0	122	1.657371745001	1	0	0
172	0	34	35	0	24	0	122	0.692125459001545	1	0	0
173	1	132	67	1	23	0	120	5.2294036509993	1	0	0
174	0	7	7	0	23	0	122	0.914263671998924	1	0	0
175	1	27	37	0	22	0	120	1.27578823400108	1	0	0
176	0	56	51	1	21	0	122	3.88529053900129	1	0	0
177	1	84	149	0	20	0	120	1.12748835699676	1	0	0
178	0	54	111	1	19	0	122	1.56791449600132	1	0	0
179	0	40	105	0	18	0	122	1.97380662099749	1	0	0
180	0	12	137	0	17	0	120	1.52490053300062	0	0	0
181	0	81	118	1	20	0	120	2.52312044100108	0	0	0
182	1	9	133	1	22	0	120	1.07794795200243	1	0	0
183	1	109	119	0	22	0	120	1.27265353800249	1	0	0
184	0	11	114	1	21	0	122	3.9449744750018	1	0	0
185	0	95	12	1	20	0	122	0.898688165998465	1	0	0
186	0	102	148	1	19	0	122	2.1807540439986	1	0	0
187	1	102	103	0	18	0	120	1.15475354099908	1	0	0
188	1	34	130	1	17	0	122	0.793636815000355	0	0	0
189	1	55	141	1	20	0	120	1.1270685970012	1	0	0
190	0	35	55	0	19	0	122	1.39226221900026	1	0	0
191	1	72	88	1	18	0	120	1.22950884499733	1	0	0
192	1	41	11	0	17	0	120	2.22596379900278	1	0	0
193	1	84	144	0	17	0	120	0.646276270999806	1	0	0
194	1	74	117	0	16	0	122	1.28281645999959	0	0	0
195	1	143	103	1	18	0	120	4.62057690199799	1	0	0
196	1	40	104	0	17	0	120	3.57470234599896	1	0	0
197	1	31	111	1	17	0	120	5.91139034700245	1	0	0
198	1	134	137	1	16	0	122	2.83243412000229	0	0	0
199	0	138	89	1	18	0	120	2.06005822700172	0	0	0
200	0	62	90	1	20	0	122	3.50280936400304	1	0	0
201	0	104	12	0	20	0	122	2.95909372100141	1	0	0
202	0	104	76	0	17	0	122	0.969636978999915	1	0	0
203	0	56	72	1	15	0	122	0.906379988999106	1	0	0
204	1	122	40	0	12	0	120	1.97170338800061	1	0	0
205	1	4	115	1	10	0	120	1.23496066499865	1	0	0
206	0	99	22	0	7	0	120	1.78246886200213	0	0	0
207	0	21	59	1	15	0	120	2.48557301500114	0	0	0
208	0	146	64	0	22	0	122	1.59910718399988	1	0	0
209	1	3	24	1	20	0	122	2.26927410400094	0	0	0
210	1	63	147	1	26	0	120	0.799756279000576	1	0	0
211	1	67	106	0	24	0	120	0.684560016998148	1	0	0
212	0	39	96	0	22	0	122	1.00703407399851	1	0	0
213	1	96	99	0	20	0	122	1.27624298799856	0	0	0
214	0	62	122	0	26	0	122	1.19938405499852	1	0	0
215	0	113	100	0	25	0	122	2.8598580450016	1	0	0
216	0	7	116	0	23	0	122	1.69559382400257	1	0	0
217	1	16	15	0	21	0	122	1.77665545099808	0	0	0
218	0	95	76	0	26	0	122	2.67150217200106	1	0	0
219	1	33	59	0	25	0	120	2.56183177400089	1	0	0
220	0	16	38	0	23	0	120	2.69707969299998	0	0	0
221	1	145	45	1	28	0	120	0.586383867001132	1	0	0
222	0	47	96	0	26	0	122	0.959928251999372	1	0	0
223	0	8	110	0	25	0	122	0.862898653998855	1	0	0
224	0	3	105	0	23	0	122	1.10627240800022	1	0	0
225	1	27	71	1	21	0	120	1.49670422300187	1	0	0
226	1	90	56	1	20	0	120	1.02902754000024	1	0	0
227	1	112	68	1	18	0	122	1.17526533899945	0	0	0
228	0	63	138	0	23	0	122	1.88051338200239	1	0	0
229	1	12	73	0	21	0	120	2.0109680860005	1	0	0
230	1	42	90	0	20	0	122	1.07152788199892	0	0	0
231	0	136	140	0	24	0	122	2.35365991000072	1	0	0
232	0	7	77	1	23	0	122	1.13769028600291	1	0	0
233	1	147	21	0	22	0	122	0.702085356999305	0	0	0
234	0	32	65	1	26	0	122	0.714027171001362	1	0	0
235	0	47	54	0	24	0	122	2.3228668039992	1	0	0
236	0	1	82	0	23	0	122	1.39553811299993	1	0	0
237	0	97	56	0	22	0	122	1.37730555600137	1	0	0
238	1	53	133	1	20	0	120	0.855741432998911	1	0	0
239	1	32	83	0	19	0	122	2.02265321300001	0	0	0
240	0	52	9	1	23	0	120	1.15911336200224	0	0	0
241	0	80	74	1	27	0	122	0.828601216999232	1	0	0
242	0	91	148	0	26	0	122	1.14755448600044	1	0	0
243	1	117	23	1	25	0	120	0.987195940000674	1	0	0
244	1	116	59	0	23	0	122	1.24097783000252	0	0	0
245	0	125	33	0	27	0	122	2.99624194599892	1	0	0
246	1	16	1	1	26	0	120	2.30596813499869	1	0	0
247	0	24	27	0	25	0	122	1.08337714699883	1	0	0
248	1	48	65	1	23	0	120	3.46172478199878	1	0	0
249	1	130	127	1	22	0	120	0.832593426999665	1	0	0
250	0	30	98	0	21	0	122	1.0365803579989	1	0	0
251	0	24	96	0	20	0	120	4.9180519770016	0	0	0
252	1	69	131	1	23	0	120	0.833442644001479	1	0	0
253	1	38	16	0	22	0	120	1.19809089199771	1	0	0
254	1	35	41	0	21	0	122	0.96336016299756	0	0	0
255	0	69	107	1	24	0	122	1.7382159459994	1	0	0
256	1	115	33	1	23	0	122	4.41068619400176	0	0	0
257	1	37	125	1	27	0	120	0.735638212001504	1	0	0
258	1	47	24	0	26	0	120	0.934871702997043	1	0	0
259	1	31	135	0	25	0	122	1.26394245999836	0	0	0
260	0	104	24	0	28	0	122	1.23434570800237	1	0	0
261	1	52	111	1	27	0	120	0.958082835000823	1	0	0
262	1	113	149	1	26	0	120	0.868508897998254	1	0	0
263	1	20	58	0	25	0	122	0.887818909999623	0	0	0
264	0	44	75	1	28	0	122	2.11324220100141	1	0	0
265	1	139	74	0	27	0	120	1.01843318299871	1	0	0
266	1	78	66	1	26	0	120	0.607384812003147	1	0	0
267	1	119	40	0	25	0	120	0.636133536998386	1	0	0
268	0	14	86	1	24	0	122	1.50479583600099	1	0	0
269	0	39	120	1	23	0	122	1.84962384999744	1	0	0
270	1	127	6	0	22	0	120	2.17323449000105	1	0	0
271	0	22	16	0	21	0	120	1.33481736299655	0	0	0
272	1	47	12	1	24	0	120	0.827192233999085	1	0	0
273	0	30	38	0	23	0	122	0.83144329499919	1	0	0
274	1	77	75	1	22	0	120	1.02788612100267	1	0	0
275	1	98	138	1	21	0	120	0.703876224000851	1	0	0
276	1	120	80	0	20	0	122	0.873463431002165	0	0	0
277	0	139	68	0	23	0	122	1.60371689900057	1	0	0
278	1	92	40	1	22	0	120	1.30585061600141	1	0	0
279	0	134	118	0	21	0	120	0.763141667001037	0	0	0
280	1	138	111	1	24	0	120	0.594145401999413	1	0	0
281	1	20	112	1	23	0	120	0.663692518999596	1	0	0
282	0	95	45	1	22	0	122	0.730566312002338	1	0	0
283	0	70	123	0	21	0	122	0.859356394998031	1	0	0
284	0	10	102	1	20	0	122	1.14232801599792	1	0	0
285	0	145	74	1	19	0	122	0.966111115998501	1	0	0
286	1	83	104	1	18	0	120	0.860628780999832	1	0	0
287	1	82	133	0	18	0	120	0.797163023999019	1	0	0
288	1	111	32	0	17	0	122	1.29341380100232	0	0	0
289	0	132	83	0	19	0	122	1.13536169799772	1	0	0
290	1	50	33	0	18	0	122	1.38896795300025	0	0	0
291	0	20	45	1	21	0	120	2.87711921400114	0	0	0
292	1	17	51	0	23	0	120	0.807059037997533	1	0	0
293	1	42	9	1	22	0	122	2.88472021699999	0	0	0
294	0	117	4	0	25	0	122	1.19891228999768	1	0	0
295	1	58	53	0	24	0	120	1.23700892399938	1	0	0
296	0	140	147	0	23	0	122	1.20098211400182	1	0	0
297	0	87	58	0	22	0	122	0.870154330998048	1	0	0
298	1	48	131	0	22	0	122	0.968786337998608	0	0	0
299	1	116	138	1	24	0	122	2.89584026599914	0	0	0
300	1	72	79	0	26	0	120	3.31357259500146	1	0	0
