Trial	Gender_Face1	Face1_nb	Face2_nb	Right_left_flip	Nb_Bubbles	Overlap_Target	Response	RT	Accuracy	Simi2Target	Trial_Reward
1	1	13	150	1	40	0	122	5.05058717599604	1	0	0
2	0	108	12	0	37	0	122	6.50598323700251	0	0	0
3	1	51	126	0	45	0	122	4.92394325899659	1	0	0
4	1	82	46	1	43	0	120	1.43954356003087	0	0	0
5	1	148	26	0	50	0	120	1.7297568829963	0	0	0
6	0	147	3	1	57	0	120	4.32294038700638	1	0	0
7	0	149	12	1	55	0	120	2.50866219203454	1	0	0
8	0	114	142	0	53	0	122	2.372369800054	0	0	0
9	0	55	119	0	59	0	122	1.56400538602611	0	0	0
10	1	83	58	0	64	0	122	0.803486504009925	1	0	0
11	1	112	138	1	63	0	120	1.50531440298073	0	0	0
12	0	48	69	0	68	0	120	1.07432043203153	1	0	0
13	0	90	98	1	66	0	120	0.884738371998537	1	0	0
14	1	126	104	1	65	0	120	1.93465039995499	0	0	0
15	1	138	88	1	70	0	122	0.926516984007321	1	0	0
16	0	6	149	1	68	0	120	1.62260004499694	1	0	0
17	0	79	58	0	66	0	120	1.09185412299121	1	0	0
18	0	101	141	0	65	0	120	1.79676161403768	1	0	0
19	1	126	74	0	63	0	122	3.03627959702862	1	0	0
20	1	57	7	1	62	0	122	4.31893106497591	1	0	0
21	0	133	143	1	60	0	120	1.01608941197628	1	0	0
22	0	129	6	1	59	0	120	3.90944368898636	1	0	0
23	0	49	94	1	57	0	120	2.57501114800107	1	0	0
24	1	108	93	0	56	0	122	0.88445499696536	1	0	0
25	0	58	67	0	54	0	120	1.78396416199394	1	0	0
26	1	119	90	1	53	0	120	1.31900343997404	0	0	0
27	0	37	136	1	57	0	120	3.71012694702949	1	0	0
28	0	89	44	1	56	0	120	0.680356447992381	1	0	0
29	1	45	61	1	54	0	120	0.786470896971878	0	0	0
30	1	93	120	0	58	0	122	1.27368934900733	1	0	0
31	1	146	138	1	57	0	120	3.7076765440288	0	0	0
32	0	138	102	1	61	0	120	3.30928859801497	1	0	0
33	0	15	113	1	60	0	120	0.677996411046479	1	0	0
34	1	22	117	1	58	0	122	2.20127019600477	1	0	0
35	0	115	80	1	57	0	120	1.26289264298975	1	0	0
36	1	36	139	1	56	0	120	1.70568806800293	0	0	0
37	1	111	17	1	60	0	120	1.73117643099977	0	0	0
38	0	32	38	0	63	0	120	1.54674420697847	1	0	0
39	0	100	121	0	62	0	120	0.987593575031497	1	0	0
40	0	10	41	1	61	0	120	0.681491755007301	1	0	0
41	0	54	59	1	60	0	120	0.780218961008359	1	0	0
42	0	107	63	0	59	0	120	1.32252489298116	1	0	0
43	0	150	1	0	57	0	120	5.73133356496692	1	0	0
44	1	147	75	1	56	0	120	0.843947922985535	0	0	0
45	1	23	116	1	60	0	122	0.935230856994167	1	0	0
46	0	112	143	0	59	0	122	7.3910492399591	0	0	0
47	0	58	93	1	62	0	120	1.44580979796592	1	0	0
48	1	67	74	0	61	0	122	1.69688711001072	1	0	0
49	1	86	16	0	60	0	120	1.13003096397733	0	0	0
50	1	128	86	0	63	0	122	0.844344142999034	1	0	0
51	1	21	135	0	62	0	122	1.19093295303173	1	0	0
52	1	123	98	1	61	0	120	1.78242136602057	0	0	0
53	1	76	90	1	64	0	122	2.33982609899249	1	0	0
54	1	98	59	1	63	0	122	1.41982480901061	1	0	0
55	1	121	76	0	62	0	122	1.78438045998337	1	0	0
56	1	33	8	1	61	0	122	1.18339649296831	1	0	0
57	0	85	127	1	60	0	120	1.52522721601417	1	0	0
58	0	128	137	0	59	0	120	2.14280744898133	1	0	0
59	0	103	132	0	58	0	120	1.90298022696516	1	0	0
60	1	52	133	1	57	0	120	6.43992206698749	0	0	0
61	1	98	37	1	60	0	122	0.778767394018359	1	0	0
62	1	10	135	1	59	0	122	7.12121202499839	1	0	0
63	1	9	106	0	58	0	122	3.81909218098735	1	0	0
64	0	137	96	0	57	0	120	0.574528827972244	1	0	0
65	1	48	74	1	56	0	120	0.653865539003164	0	0	0
66	0	138	99	1	59	0	120	0.721171230019536	1	0	0
67	1	116	68	0	58	0	120	0.806299666990526	0	0	0
68	0	146	78	0	61	0	120	0.749831248016562	1	0	0
69	0	134	133	0	60	0	120	1.00569078302942	1	0	0
70	0	126	145	0	59	0	120	1.98056010302389	1	0	0
71	1	49	44	0	58	0	122	1.37000142800389	1	0	0
72	1	22	118	0	57	0	122	0.833519143983722	1	0	0
73	0	35	50	0	56	0	122	1.68594667100115	0	0	0
74	1	136	9	0	59	0	120	1.34323067602236	0	0	0
75	0	78	83	1	62	0	120	1.01605372101767	1	0	0
76	0	82	83	0	61	0	120	0.876958632026799	1	0	0
77	1	79	95	0	60	0	120	1.41499481297797	0	0	0
78	1	149	8	0	62	0	120	0.692430633003823	0	0	0
79	1	33	81	1	65	0	122	1.2717117239954	1	0	0
80	1	32	114	0	64	0	122	1.54493416595506	1	0	0
81	1	109	30	0	63	0	122	5.02479410497472	1	0	0
82	0	112	87	0	62	0	120	0.941548183036502	1	0	0
83	1	15	51	1	61	0	120	1.35797104798257	0	0	0
84	0	65	147	0	64	0	120	0.718107784981839	1	0	0
85	1	116	79	1	63	0	120	1.51810525701148	0	0	0
86	0	99	30	0	66	0	120	4.31853777298238	1	0	0
87	1	19	83	0	65	0	120	3.05472772300709	0	0	0
88	1	1	104	1	67	0	120	2.26633849699283	0	0	0
89	1	60	6	0	70	0	122	0.910062864946667	1	0	0
90	1	128	17	0	69	0	120	0.791381548042409	0	0	0
91	1	42	86	0	71	0	122	2.5571188609465	1	0	0
92	0	115	143	0	71	0	122	1.14116284594638	0	0	0
93	0	133	29	1	73	0	120	0.78096468799049	1	0	0
94	1	24	84	1	72	0	122	2.23553535202518	1	0	0
95	1	45	79	0	71	0	122	0.815340102999471	1	0	0
96	0	94	72	0	71	0	120	1.79559964197688	1	0	0
97	1	92	14	1	70	0	122	0.730711111042183	1	0	0
98	0	53	91	1	69	0	122	0.0592339590075426	0	0	0
99	0	10	111	0	71	0	120	4.42223797802581	1	0	0
100	0	98	7	0	71	0	120	0.850498441024683	1	0	0
101	0	35	21	1	70	0	120	2.244167759025	1	0	0
102	1	11	26	1	67	0	120	1.13997952098725	0	0	0
103	1	103	86	0	76	0	122	0.612526705022901	1	0	0
104	0	78	106	0	74	0	120	0.827448270982131	1	0	0
105	1	49	55	1	71	0	122	1.44061065698043	1	0	0
106	0	121	81	1	68	0	120	0.87770879897289	1	0	0
107	0	31	35	0	66	0	120	0.758749983971938	1	0	0
108	0	60	85	1	63	0	120	0.574534767016303	1	0	0
109	0	147	66	1	61	0	120	0.789159304986242	1	0	0
110	0	24	72	1	58	0	120	7.77194823796162	1	0	0
111	0	71	129	1	56	0	122	9.42573358298978	0	0	0
112	0	65	139	0	63	0	120	2.43830637499923	1	0	0
113	0	17	91	1	61	0	120	0.811047518975101	1	0	0
114	1	59	7	0	59	0	120	1.00713698705658	0	0	0
115	1	139	9	0	66	0	122	1.78896553296363	1	0	0
116	1	17	78	0	63	0	122	0.771057880017906	1	0	0
117	0	13	148	1	61	0	120	1.08944371098187	1	0	0
118	1	114	77	1	59	0	120	0.804641762981191	0	0	0
119	1	86	96	0	65	0	122	1.72957418498117	1	0	0
120	1	137	36	0	63	0	122	1.01796423102496	1	0	0
121	1	35	48	0	61	0	120	0.701664101041388	0	0	0
122	0	140	124	1	68	0	120	0.575777326943353	1	0	0
123	1	132	135	0	66	0	122	2.69422541098902	1	0	0
124	1	53	98	0	64	0	120	0.656185759056825	0	0	0
125	1	50	86	1	69	0	120	0.939295898017008	0	0	0
126	0	19	49	0	75	0	120	0.636281421990134	1	0	0
127	0	131	145	0	73	0	120	0.679574800014962	1	0	0
128	0	84	55	1	72	0	120	0.738559457007796	1	0	0
129	1	110	93	1	70	0	120	0.754818994959351	0	0	0
130	1	143	59	1	75	0	122	1.29853312898194	1	0	0
131	0	26	37	0	73	0	120	0.988217532983981	1	0	0
132	1	74	92	0	72	0	122	0.681478863989469	1	0	0
133	1	46	147	1	70	0	122	0.883315376995597	1	0	0
134	1	124	138	1	68	0	120	0.998414866975509	0	0	0
135	1	63	98	0	73	0	122	0.980121828964911	1	0	0
136	1	91	69	0	72	0	120	0.796229570987634	0	0	0
137	1	62	71	1	77	0	122	1.27321855898481	1	0	0
138	1	96	66	1	75	0	122	0.699989703018218	1	0	0
139	0	81	92	0	73	0	120	0.55013887595851	1	0	0
140	0	112	77	0	72	0	120	1.06317362195114	1	0	0
141	1	146	125	1	70	0	120	1.17776170099387	0	0	0
142	0	27	20	0	75	0	120	1.8952982359915	1	0	0
143	0	7	139	1	73	0	120	0.681853497982956	1	0	0
144	1	46	100	0	72	0	120	0.732510958972853	0	0	0
145	1	100	91	1	76	0	122	0.821229574969038	1	0	0
146	0	125	118	0	75	0	120	3.29752397804987	1	0	0
147	0	97	140	0	73	0	120	0.595264006988145	1	0	0
148	1	42	5	0	72	0	122	0.978062285983469	1	0	0
149	1	129	63	1	71	0	122	1.17621614300879	1	0	0
150	0	16	80	0	69	0	120	0.574188161001075	1	0	0
151	1	60	149	0	68	0	122	0.798443913983647	1	0	0
152	0	66	14	1	67	0	120	0.635781126038637	1	0	0
153	1	131	58	1	65	0	120	1.67954100400675	0	0	0
154	0	68	80	0	69	0	120	1.26558326202212	1	0	0
155	0	32	4	1	68	0	120	3.47766998701263	1	0	0
156	1	59	145	1	66	0	120	0.767932714952622	0	0	0
157	1	130	72	1	70	0	120	3.10263179102913	0	0	0
158	1	90	83	0	74	0	122	3.22495725599583	1	0	0
159	0	57	99	0	73	0	120	0.621571466966998	1	0	0
160	0	10	104	1	71	0	120	0.816675480979029	1	0	0
161	1	85	93	0	70	0	122	0.927042328985408	1	0	0
162	0	119	99	0	69	0	120	2.58341022400418	1	0	0
163	1	150	62	1	68	0	122	0.837150976003613	1	0	0
164	1	8	89	1	67	0	122	0.594072871957906	1	0	0
165	1	113	12	0	66	0	122	0.655800948967226	1	0	0
166	1	110	112	1	64	0	120	0.586836192989722	0	0	0
167	1	50	65	1	68	0	122	1.07305571896723	1	0	0
168	0	145	53	0	67	0	120	1.08334842999466	1	0	0
169	0	110	13	0	65	0	122	2.09449518099427	0	0	0
170	1	128	21	1	69	0	122	0.727975405985489	1	0	0
171	0	26	30	1	68	0	120	0.777240266965237	1	0	0
172	1	59	95	0	67	0	122	0.694513045018539	1	0	0
173	1	21	145	1	65	0	122	3.32933817600133	1	0	0
174	0	129	16	1	64	0	120	3.05936287000077	1	0	0
175	0	59	56	1	63	0	120	2.11773024499416	1	0	0
176	0	149	41	0	62	0	120	0.606743985961657	1	0	0
177	1	102	146	1	61	0	122	0.716524884977844	1	0	0
178	0	32	102	1	60	0	120	0.893341904971749	1	0	0
179	1	18	46	1	59	0	122	0.798426276014652	1	0	0
180	0	5	78	1	58	0	120	1.1658079160261	1	0	0
181	0	63	140	0	57	0	122	0.810943125979975	0	0	0
182	0	57	15	1	60	0	120	0.536880870000459	1	0	0
183	0	136	20	0	59	0	120	0.528685525001492	1	0	0
184	1	83	39	0	58	0	122	0.883396756020375	1	0	0
185	1	91	9	0	57	0	120	4.08413673297036	0	0	0
186	0	42	21	0	60	0	120	0.638814984005876	1	0	0
187	1	30	130	1	59	0	122	2.5300661099609	1	0	0
188	0	98	146	0	58	0	120	0.883223721990362	1	0	0
189	1	5	148	1	57	0	122	1.80687492201105	1	0	0
190	0	68	55	1	57	0	120	0.747745561995544	1	0	0
191	1	15	146	1	56	0	122	0.706545070046559	1	0	0
192	0	74	90	1	55	0	120	1.31739050301258	1	0	0
193	1	142	139	0	54	0	122	0.525922519038431	1	0	0
194	0	5	84	0	53	0	120	0.877843168040272	1	0	0
195	0	40	95	1	52	0	120	0.720987792010419	1	0	0
196	1	36	68	0	51	0	122	0.578477892035153	1	0	0
197	1	143	133	1	51	0	122	2.53545836004196	1	0	0
198	1	31	2	1	50	0	122	1.90369230997749	1	0	0
199	0	119	4	1	49	0	120	0.673766921972856	1	0	0
200	1	73	11	1	48	0	122	0.780638694996014	1	0	0
201	0	121	103	1	47	0	120	1.27430747897597	1	0	0
202	1	92	66	1	44	0	122	0.672435679996852	1	0	0
203	0	52	26	0	42	0	120	0.668644028017297	1	0	0
204	0	138	59	1	39	0	120	1.5289522910025	1	0	0
205	1	118	126	0	37	0	120	4.51503504696302	0	0	0
206	0	33	117	1	44	0	120	1.65882719104411	1	0	0
207	1	80	47	1	42	0	122	0.830543925985694	1	0	0
208	1	146	112	0	40	0	122	2.87559594400227	1	0	0
209	1	133	104	1	38	0	120	1.6706642860081	0	0	0
210	0	84	135	1	44	0	120	0.704060751013458	1	0	0
211	1	12	7	0	42	0	122	1.71481517900247	1	0	0
212	0	114	57	1	40	0	122	1.8591461640317	0	0	0
213	0	39	65	1	47	0	120	0.630224589025602	1	0	0
214	0	8	79	0	45	0	120	1.79583865002496	1	0	0
215	1	104	4	1	43	0	122	0.897432674013544	1	0	0
216	1	69	23	0	41	0	122	1.01894213404739	1	0	0
217	0	77	16	0	39	0	120	0.600623456994072	1	0	0
218	1	47	50	0	37	0	122	1.5565313679981	1	0	0
219	1	64	7	0	35	0	122	1.89244608895388	1	0	0
220	1	60	54	1	33	0	122	0.655988002021331	1	0	0
221	1	64	133	1	31	0	122	0.993850482976995	1	0	0
222	0	126	13	1	29	0	120	1.96038065099856	1	0	0
223	1	103	34	1	27	0	122	0.719706240983214	1	0	0
224	0	86	63	0	26	0	120	4.02441185596399	1	0	0
225	0	123	116	0	24	0	122	3.29232711700024	0	0	0
226	1	58	25	1	29	0	120	1.31053966301261	0	0	0
227	0	138	22	0	34	0	120	3.43200766399968	1	0	0
228	1	95	68	0	33	0	122	6.73266989295371	1	0	0
229	0	34	82	0	31	0	120	3.50089014100377	1	0	0
230	1	2	49	1	29	0	120	1.24604299996281	0	0	0
231	0	100	78	0	34	0	122	6.15495977201499	0	0	0
232	1	119	87	1	39	0	120	2.44913002697285	0	0	0
233	1	72	21	1	44	0	120	1.9893133600126	0	0	0
234	1	5	77	0	48	0	120	2.28444557404146	0	0	0
235	1	102	26	0	53	0	122	0.92681294400245	1	0	0
236	1	118	121	0	51	0	120	1.19130859995494	0	0	0
237	0	108	50	0	56	0	120	0.796985296008643	1	0	0
238	1	33	37	0	55	0	122	0.722156831005123	1	0	0
239	0	26	85	0	53	0	120	1.32443982199766	1	0	0
240	1	67	99	0	52	0	122	0.659604421991389	1	0	0
241	0	15	9	1	50	0	120	1.0959551470005	1	0	0
242	0	40	39	0	49	0	120	1.00100324995583	1	0	0
243	1	57	48	0	48	0	122	0.792321162996814	1	0	0
244	1	138	114	0	46	0	122	1.25256228400394	1	0	0
245	0	113	81	1	45	0	122	1.08971752098296	0	0	0
246	0	115	105	0	49	0	120	1.01155227597337	1	0	0
247	0	64	99	1	48	0	120	0.895218270015903	1	0	0
248	1	115	116	0	46	0	122	1.24115161801456	1	0	0
249	1	82	44	0	45	0	122	1.9344689269783	1	0	0
250	0	90	2	1	44	0	120	0.942898551002145	1	0	0
251	1	90	71	0	43	0	120	2.1418519760482	0	0	0
252	0	91	102	0	46	0	120	0.757163639005739	1	0	0
253	1	88	102	0	45	0	122	0.692472550959792	1	0	0
254	1	98	19	1	44	0	122	0.574064862041268	1	0	0
255	1	91	13	0	43	0	122	0.606989538995549	1	0	0
256	0	81	17	0	42	0	120	0.610862985020503	1	0	0
257	0	99	63	0	40	0	120	0.761158203997184	1	0	0
258	1	99	122	0	39	0	122	1.20880284602754	1	0	0
259	0	95	76	0	38	0	120	0.613486685964745	1	0	0
260	1	69	77	1	37	0	122	0.730093123042025	1	0	0
261	1	94	123	1	36	0	122	1.12245282199001	1	0	0
262	1	150	111	0	35	0	122	0.731635099975392	1	0	0
263	0	149	150	0	34	0	120	1.22914225503337	1	0	0
264	0	11	105	0	33	0	120	0.880260854959488	1	0	0
265	1	60	82	1	32	0	122	0.651563982013613	1	0	0
266	1	48	23	0	31	0	122	0.910924049967434	1	0	0
267	0	17	42	1	30	0	120	2.02503426797921	1	0	0
268	0	79	12	0	29	0	120	0.844404670991935	1	0	0
269	0	107	16	0	28	0	122	1.48125089297537	0	0	0
270	0	135	113	1	31	0	120	3.01099366304697	1	0	0
271	0	110	15	1	30	0	122	2.06391358998371	0	0	0
272	1	66	101	1	33	0	122	0.772418843000196	1	0	0
273	1	42	12	1	32	0	122	1.00353351503145	1	0	0
274	0	66	95	0	31	0	120	0.895219826954417	1	0	0
275	0	3	19	1	30	0	120	0.898265078023542	1	0	0
276	1	16	51	1	29	0	120	0.764364287024364	0	0	0
277	1	122	109	0	32	0	122	0.732184654974844	1	0	0
278	0	122	92	0	31	0	120	0.836696746991947	1	0	0
279	0	52	73	1	30	0	122	0.655399270006455	0	0	0
280	0	91	29	1	33	0	120	0.947448134014849	1	0	0
281	0	104	81	0	32	0	120	1.51535554899601	1	0	0
282	0	14	90	1	31	0	120	0.796087623981293	1	0	0
283	0	17	1	1	30	0	120	0.873950670007616	1	0	0
284	1	54	55	1	29	0	120	0.000181298993993551	0	0	0
285	0	60	15	1	32	0	120	0.657807957031764	1	0	0
286	0	51	5	1	31	0	120	0.694069960038178	1	0	0
287	1	84	83	0	30	0	122	3.40697265102062	1	0	0
288	1	19	148	0	29	0	122	1.09361978399102	1	0	0
289	0	21	125	0	29	0	120	1.11037911201129	1	0	0
290	1	55	83	1	28	0	122	1.00806345802266	1	0	0
291	1	29	78	1	27	0	120	1.55760422704043	0	0	0
292	0	49	89	0	29	0	120	1.68573610798921	1	0	0
293	1	54	134	1	29	0	122	0.887102751992643	1	0	0
294	0	110	35	0	28	0	122	2.18405252002412	0	0	0
295	0	43	107	1	30	0	120	0.967109350953251	1	0	0
296	0	91	55	1	29	0	120	0.662640460010152	1	0	0
297	0	92	63	1	29	0	120	1.35375275695696	1	0	0
298	1	113	147	1	28	0	120	0.744420494011138	0	0	0
299	1	53	150	1	30	0	120	1.39391128002899	0	0	0
300	1	114	125	0	32	0	120	0.774133462982718	0	0	0
