Trial	Gender_Face1	Face1_nb	Face2_nb	Right_left_flip	Nb_Bubbles	Overlap_Target	Response	RT	Accuracy	Simi2Target	Trial_Reward
1	0	139	33	1	40	0	120	1.32254631794058	1	0	0
2	0	41	3	1	37	0	122	1.80032192403451	0	0	0
3	1	125	84	0	45	0	122	0.903013963019475	1	0	0
4	1	141	108	1	43	0	120	1.26510504912585	0	0	0
5	0	68	12	0	50	0	122	1.3875643578358	0	0	0
6	0	1	111	1	57	0	120	1.24954968108796	1	0	0
7	1	2	19	1	55	0	122	1.52483449992724	1	0	0
8	1	21	9	1	53	0	122	0.957454201998189	1	0	0
9	1	100	14	1	51	0	122	1.10885405703448	1	0	0
10	1	48	12	1	49	0	122	1.75010810093954	1	0	0
11	1	123	77	1	47	0	122	0.741572897881269	1	0	0
12	1	91	45	0	45	0	120	0.52612197608687	0	0	0
13	0	85	15	1	51	0	120	0.583178280154243	1	0	0
14	1	81	101	0	49	0	122	0.757007768144831	1	0	0
15	0	92	82	1	47	0	120	0.69216832681559	1	0	0
16	0	47	23	1	46	0	122	0.542221341049299	0	0	0
17	0	101	145	1	51	0	122	0.886273598996922	0	0	0
18	0	1	114	1	56	0	120	0.720063969958574	1	0	0
19	1	80	111	0	55	0	122	0.800467393826693	1	0	0
20	0	68	111	0	53	0	122	1.57470173505135	0	0	0
21	1	102	49	1	58	0	122	1.08540820493363	1	0	0
22	0	29	2	0	56	0	120	0.894628562033176	1	0	0
23	1	132	77	1	55	0	122	0.617093725828454	1	0	0
24	0	71	7	1	53	0	120	0.726133143994957	1	0	0
25	1	134	12	0	52	0	120	0.750316177029163	0	0	0
26	1	48	148	0	56	0	120	1.30222988291644	0	0	0
27	1	21	95	0	61	0	122	0.879404393956065	1	0	0
28	1	130	8	0	59	0	122	0.570212400984019	1	0	0
29	0	28	147	0	58	0	122	0.649136245017871	0	0	0
30	0	63	35	1	62	0	122	0.699944355990738	0	0	0
31	0	23	119	0	66	0	120	0.686597214778885	1	0	0
32	1	91	147	0	65	0	122	1.15188488108106	1	0	0
33	0	121	121	1	64	0	120	0.495274882996455	1	0	0
34	0	28	87	0	62	0	122	0.53769377595745	0	0	0
35	0	82	135	1	66	0	120	0.553924456005916	1	0	0
36	0	124	137	1	65	0	120	0.609274110058323	1	0	0
37	1	44	9	1	64	0	120	0.438161272089928	0	0	0
38	1	139	78	0	68	0	122	0.69088674383238	1	0	0
39	0	71	65	1	66	0	120	0.532031611073762	1	0	0
40	1	119	115	1	65	0	122	0.676811289973557	1	0	0
41	0	63	84	1	64	0	120	0.983009521150962	1	0	0
42	0	79	59	1	63	0	120	1.01283566886559	1	0	0
43	1	140	48	0	61	0	122	0.802069158060476	1	0	0
44	0	45	61	0	60	0	120	0.551574514945969	1	0	0
45	0	137	95	0	59	0	120	0.582675304031	1	0	0
46	0	28	31	0	58	0	120	0.437093175947666	1	0	0
47	0	59	126	0	57	0	120	0.50558273983188	1	0	0
48	0	110	48	0	56	0	120	0.939152257982641	1	0	0
49	1	19	7	0	55	0	122	0.63491974491626	1	0	0
50	0	89	90	1	53	0	122	0.798531992128119	0	0	0
51	0	4	56	0	57	0	120	0.484331951942295	1	0	0
52	0	123	78	0	56	0	120	0.478553948923945	1	0	0
53	0	84	35	1	55	0	120	0.538070272887126	1	0	0
54	1	65	146	1	53	0	122	0.505252869101241	1	0	0
55	1	22	67	0	52	0	122	0.635245030978695	1	0	0
56	0	21	120	0	51	0	122	0.958620793186128	0	0	0
57	1	26	138	1	54	0	120	0.77398963808082	0	0	0
58	0	15	103	1	57	0	120	0.460236856946722	1	0	0
59	0	63	136	0	56	0	120	0.511491213925183	1	0	0
60	0	41	106	1	55	0	120	0.664265193976462	1	0	0
61	1	3	28	0	54	0	122	0.787387034855783	1	0	0
62	1	79	42	1	53	0	122	0.656731511000544	1	0	0
63	1	48	72	0	52	0	122	0.740543545922264	1	0	0
64	0	21	149	1	52	0	120	0.492472656071186	1	0	0
65	0	56	42	0	51	0	120	1.02216907218099	1	0	0
66	1	81	50	1	50	0	122	0.795416790992022	1	0	0
67	0	149	71	1	49	0	120	0.873569253832102	1	0	0
68	0	84	18	1	48	0	120	0.555783487856388	1	0	0
69	0	39	31	1	47	0	120	0.803726576967165	1	0	0
70	0	41	17	0	46	0	120	0.888896002899855	1	0	0
71	1	13	63	1	45	0	122	1.15251047513448	1	0	0
72	1	141	76	0	44	0	122	0.7057839340996	1	0	0
73	0	144	105	0	43	0	120	0.50799253792502	1	0	0
74	0	106	124	0	43	0	120	0.532968268962577	1	0	0
75	0	64	119	1	42	0	120	0.55763522698544	1	0	0
76	0	112	136	0	41	0	120	0.773329727817327	1	0	0
77	0	119	46	1	40	0	120	0.571831695968285	1	0	0
78	1	98	111	1	39	0	120	1.05067298887298	0	0	0
79	0	80	143	0	42	0	120	0.605924475938082	1	0	0
80	0	109	136	0	41	0	120	0.659478882793337	1	0	0
81	0	9	147	1	40	0	120	0.694992468925193	1	0	0
82	0	24	146	0	39	0	120	0.69604047993198	1	0	0
83	1	101	104	0	39	0	122	0.586177444085479	1	0	0
84	1	92	58	1	38	0	122	0.752064164960757	1	0	0
85	1	80	58	0	37	0	122	0.711410109885037	1	0	0
86	0	8	113	0	36	0	120	0.864390257978812	1	0	0
87	0	20	20	0	36	0	120	0.612457608105615	1	0	0
88	1	145	77	0	35	0	122	0.833331950940192	1	0	0
89	0	99	27	0	34	0	122	1.15755926002748	0	0	0
90	1	87	110	1	36	0	122	0.772706298856065	1	0	0
91	1	83	150	0	36	0	122	0.635634786915034	1	0	0
92	0	146	74	1	35	0	122	0.887618454173207	0	0	0
93	1	6	22	1	37	0	122	0.704779437044635	1	0	0
94	0	123	30	1	36	0	122	0.711427197791636	0	0	0
95	0	18	90	1	38	0	120	1.14754177792929	1	0	0
96	1	12	50	1	38	0	122	0.819417560007423	1	0	0
97	0	48	61	1	37	0	120	0.68772737798281	1	0	0
98	0	105	40	0	36	0	122	0.666420284891501	0	0	0
99	1	70	68	1	38	0	122	0.556426750961691	1	0	0
100	1	16	130	0	38	0	122	1.00390301900916	1	0	0
101	1	55	10	1	37	0	122	0.690133166033775	1	0	0
102	0	38	59	1	34	0	120	1.28904008702375	1	0	0
103	1	46	20	0	32	0	120	1.06897299690172	0	0	0
104	0	114	97	1	40	0	122	0.776096886955202	0	0	0
105	0	37	84	0	46	0	120	0.661746098892763	1	0	0
106	1	45	118	0	44	0	122	0.777026321040466	1	0	0
107	0	73	15	0	42	0	120	0.540629247901961	1	0	0
108	1	107	11	0	40	0	122	0.52802092791535	1	0	0
109	0	104	56	1	38	0	122	0.792277180124074	0	0	0
110	0	75	26	1	44	0	120	0.574127024039626	1	0	0
111	0	144	118	0	42	0	120	0.644508806057274	1	0	0
112	1	7	118	0	40	0	120	0.728697985876352	0	0	0
113	0	96	137	0	46	0	120	0.576328970957547	1	0	0
114	0	9	150	0	45	0	120	0.56763607589528	1	0	0
115	1	119	104	0	43	0	120	0.758446101099253	0	0	0
116	0	36	78	1	48	0	120	0.773338165134192	1	0	0
117	0	43	48	0	47	0	120	0.524098319001496	1	0	0
118	0	67	7	1	45	0	120	0.628395718988031	1	0	0
119	0	87	53	0	43	0	120	0.808740950888023	1	0	0
120	1	74	147	0	41	0	122	0.886301608989015	1	0	0
121	1	61	135	1	40	0	122	0.600054878974333	1	0	0
122	0	139	126	1	38	0	120	0.525807080091909	1	0	0
123	1	89	58	0	36	0	122	1.42273397906683	1	0	0
124	0	1	83	1	35	0	120	0.595156432827935	1	0	0
125	0	81	24	1	33	0	120	0.593590388074517	1	0	0
126	1	25	122	0	32	0	122	0.973486742936075	1	0	0
127	1	99	42	0	30	0	122	0.573115570005029	1	0	0
128	0	90	101	0	28	0	122	0.411971332039684	0	0	0
129	1	54	8	0	33	0	122	0.416980899171904	1	0	0
130	0	7	78	1	32	0	120	0.502236793981865	1	0	0
131	1	14	105	1	30	0	120	0.431042074924335	0	0	0
132	0	33	28	0	35	0	122	0.395949439145625	0	0	0
133	0	18	16	1	39	0	120	0.72959268395789	1	0	0
134	0	143	89	0	38	0	120	0.465751277050003	1	0	0
135	0	37	48	1	36	0	120	0.493167896056548	1	0	0
136	0	13	50	1	35	0	120	0.574472123058513	1	0	0
137	1	64	101	1	34	0	122	1.0617070349399	1	0	0
138	0	119	135	0	32	0	120	1.02408309909515	1	0	0
139	1	94	110	1	31	0	120	0.708300465950742	0	0	0
140	1	11	8	0	35	0	122	0.702381471870467	1	0	0
141	0	20	75	1	34	0	120	0.824049159185961	1	0	0
142	1	21	6	0	32	0	122	0.812498044921085	1	0	0
143	1	103	100	1	31	0	122	0.640747389057651	1	0	0
144	0	101	142	1	30	0	120	0.572887728922069	1	0	0
145	0	92	10	1	29	0	122	1.00358029990457	0	0	0
146	1	77	41	1	32	0	122	0.632964661112055	1	0	0
147	1	109	66	0	31	0	122	0.63687631697394	1	0	0
148	1	110	145	0	30	0	122	0.705248181009665	1	0	0
149	0	150	2	1	29	0	120	0.842749293893576	1	0	0
150	1	125	133	0	28	0	122	0.718308469979092	1	0	0
151	0	81	9	0	27	0	122	0.743638865882531	0	0	0
152	1	75	139	1	30	0	122	0.630520700942725	1	0	0
153	1	19	119	1	29	0	122	0.6006175999064	1	0	0
154	0	28	92	1	28	0	120	0.905260588973761	1	0	0
155	1	37	110	1	27	0	122	0.63336275680922	1	0	0
156	0	68	108	1	25	0	120	0.686548418132588	1	0	0
157	1	105	64	1	24	0	122	0.613656336907297	1	0	0
158	1	84	82	0	23	0	122	0.621795087121427	1	0	0
159	0	147	25	0	22	0	120	0.666707914089784	1	0	0
160	0	130	72	1	21	0	120	0.725575966993347	1	0	0
161	0	99	14	1	20	0	120	0.669636131962761	1	0	0
162	1	134	39	0	19	0	120	0.728338962886482	0	0	0
163	0	118	99	1	22	0	120	1.3367855460383	1	0	0
164	0	83	122	1	21	0	120	1.3285351828672	1	0	0
165	1	84	98	0	20	0	122	0.584856414003298	1	0	0
166	0	34	137	1	19	0	120	0.51849326514639	1	0	0
167	1	10	149	1	18	0	122	0.446858122944832	1	0	0
168	1	20	56	1	17	0	122	0.69896092498675	1	0	0
169	0	99	21	1	17	0	120	0.812736090971157	1	0	0
170	1	145	13	0	16	0	122	0.6815840320196	1	0	0
171	1	102	43	0	15	0	120	1.15579328709282	0	0	0
172	0	84	75	0	17	0	120	1.38765442813747	1	0	0
173	1	31	131	1	16	0	120	0.614885464077815	0	0	0
174	0	93	1	1	19	0	120	0.670086506055668	1	0	0
175	1	29	6	0	18	0	122	0.776854577008635	1	0	0
176	1	42	95	1	17	0	120	0.855131570016965	0	0	0
177	1	87	30	0	20	0	122	1.10662978701293	1	0	0
178	1	49	149	1	19	0	122	0.643986953888088	1	0	0
179	0	130	8	0	18	0	120	0.563987460918725	1	0	0
180	0	17	117	0	17	0	120	0.886248973896727	1	0	0
181	0	43	134	1	17	0	120	1.44875084492378	1	0	0
182	0	122	13	1	16	0	120	0.763626846950501	1	0	0
183	1	66	91	1	15	0	120	0.755524117033929	0	0	0
184	0	9	23	0	17	0	122	0.499007177073509	0	0	0
185	1	92	88	1	20	0	122	0.73294177907519	1	0	0
186	1	70	146	0	19	0	122	0.708268529968336	1	0	0
187	0	106	130	1	18	0	120	0.646273978985846	1	0	0
188	0	75	107	0	17	0	120	0.8178613090422	1	0	0
189	0	3	136	0	17	0	120	1.03869776497595	1	0	0
190	1	55	5	1	16	0	120	0.602605534018949	0	0	0
191	0	139	37	0	18	0	120	0.464599611936137	1	0	0
192	1	150	2	1	17	0	122	0.387015426065773	1	0	0
193	0	37	130	1	17	0	122	0.512701233150437	0	0	0
194	0	56	18	0	19	0	120	0.977540079969913	1	0	0
195	1	22	26	1	18	0	122	0.831831896910444	1	0	0
196	1	66	93	0	17	0	122	0.732605713186786	1	0	0
197	0	107	92	0	17	0	122	1.06133522698656	0	0	0
198	1	93	73	0	19	0	122	0.679475523997098	1	0	0
199	1	120	31	0	18	0	120	0.58637201692909	0	0	0
200	1	39	33	0	20	0	122	0.640676707029343	1	0	0
201	0	87	103	1	19	0	120	0.908336313907057	1	0	0
202	1	48	139	0	16	0	120	0.683755514910445	0	0	0
203	0	68	7	1	24	0	120	0.558582683093846	1	0	0
204	1	25	49	1	22	0	120	0.606837980914861	0	0	0
205	0	121	144	0	29	0	120	0.747472843155265	1	0	0
206	1	89	31	0	27	0	122	0.827575596049428	1	0	0
207	0	12	87	0	25	0	122	0.808689005905762	0	0	0
208	0	133	13	0	32	0	120	0.618480670964345	1	0	0
209	1	113	107	1	30	0	122	0.514980952022597	1	0	0
210	1	49	84	0	28	0	120	0.675629138015211	0	0	0
211	0	150	46	1	33	0	120	0.606559388106689	1	0	0
212	0	130	17	0	31	0	120	0.554961391026154	1	0	0
213	1	129	33	1	30	0	122	0.538555138045922	1	0	0
214	1	5	37	0	28	0	122	0.930474371882156	1	0	0
215	1	150	127	1	26	0	122	0.739296748070046	1	0	0
216	1	102	65	0	24	0	122	0.539266417967156	1	0	0
217	1	81	88	0	22	0	120	0.603458613157272	0	0	0
218	1	131	52	0	28	0	120	0.760647144867107	0	0	0
219	0	2	70	1	33	0	120	0.567295822082087	1	0	0
220	0	84	11	1	32	0	120	0.606488269986585	1	0	0
221	1	51	44	1	30	0	122	0.723868660163134	1	0	0
222	1	135	70	0	28	0	122	0.676465252181515	1	0	0
223	0	15	62	1	27	0	120	0.515463654883206	1	0	0
224	0	67	36	1	25	0	120	0.503495179116726	1	0	0
225	1	5	46	0	24	0	120	0.816512179095298	0	0	0
226	0	42	57	1	28	0	120	0.653028826927766	1	0	0
227	0	67	78	0	27	0	120	0.616620213957503	1	0	0
228	0	29	98	1	25	0	120	0.709566800156608	1	0	0
229	1	34	139	0	24	0	122	0.559146399144083	1	0	0
230	1	142	39	0	22	0	122	0.740896726027131	1	0	0
231	1	83	37	0	21	0	120	0.733061178820208	0	0	0
232	1	143	30	1	25	0	120	0.558022524928674	0	0	0
233	0	46	48	1	29	0	120	0.549137464025989	1	0	0
234	1	134	59	1	28	0	120	0.708595902193338	0	0	0
235	0	66	61	0	32	0	122	1.10995518090203	0	0	0
236	1	134	32	0	36	0	120	0.65591719513759	0	0	0
237	0	131	112	0	40	0	120	0.554395068902522	1	0	0
238	1	122	140	1	39	0	120	1.00934018194675	0	0	0
239	0	50	132	1	43	0	120	0.478974370053038	1	0	0
240	0	35	67	1	42	0	120	0.857415776932612	1	0	0
241	0	25	80	1	40	0	120	0.524401292903349	1	0	0
242	1	76	85	1	39	0	120	0.533055062871426	0	0	0
243	0	114	145	0	43	0	120	0.493517177877948	1	0	0
244	0	58	72	0	41	0	120	0.447256474057212	1	0	0
245	0	39	100	0	40	0	120	0.450971316779032	1	0	0
246	0	87	147	1	39	0	120	0.470289030112326	1	0	0
247	1	127	24	0	38	0	122	0.552849948173389	1	0	0
248	1	79	100	1	37	0	122	0.743709187954664	1	0	0
249	1	79	41	0	36	0	122	0.647917561000213	1	0	0
250	1	83	129	0	34	0	122	0.524400476133451	1	0	0
251	1	108	46	1	33	0	122	0.741122490959242	1	0	0
252	0	25	27	0	32	0	122	0.612764209043235	0	0	0
253	0	103	31	0	35	0	120	0.642131737899035	1	0	0
254	0	74	9	0	34	0	120	0.597308000084013	1	0	0
255	0	121	48	1	33	0	120	0.49986926605925	1	0	0
256	0	37	93	0	32	0	120	0.52977881510742	1	0	0
257	1	114	112	0	31	0	122	1.26949443900958	1	0	0
258	0	87	117	1	30	0	120	0.528113745851442	1	0	0
259	1	106	16	1	29	0	122	0.873086652019992	1	0	0
260	0	40	42	0	28	0	120	0.555849482072517	1	0	0
261	0	22	78	1	27	0	120	0.571149222087115	1	0	0
262	1	21	20	1	26	0	122	0.730279739946127	1	0	0
263	0	85	38	1	25	0	120	0.705922725144774	1	0	0
264	0	143	79	1	24	0	120	0.755030135856941	1	0	0
265	0	113	71	0	23	0	120	0.651127493940294	1	0	0
266	0	89	49	0	22	0	120	0.637955470010638	1	0	0
267	1	95	135	1	21	0	120	0.986409219913185	0	0	0
268	1	9	146	0	24	0	120	0.560226377099752	0	0	0
269	0	36	95	1	27	0	120	0.518509380985051	1	0	0
270	0	120	129	0	26	0	120	0.847574716899544	1	0	0
271	1	141	79	0	25	0	120	0.810841626953334	0	0	0
272	1	10	44	1	28	0	122	0.576319358078763	1	0	0
273	1	95	147	1	27	0	122	0.621821627952158	1	0	0
274	1	67	122	1	26	0	122	0.771069521084428	1	0	0
275	1	36	53	1	25	0	122	0.610032815020531	1	0	0
276	1	140	24	1	24	0	122	0.695033133029938	1	0	0
277	1	22	102	1	23	0	122	0.736370088066906	1	0	0
278	0	15	7	0	22	0	120	0.48894927999936	1	0	0
279	0	74	124	0	22	0	120	0.714304867899045	1	0	0
280	1	51	101	0	21	0	120	0.681055644992739	0	0	0
281	0	140	130	0	23	0	120	0.590102146146819	1	0	0
282	1	3	89	1	22	0	122	0.516356462845579	1	0	0
283	1	48	12	0	21	0	120	0.636392047861591	0	0	0
284	1	58	135	0	24	0	120	0.544380886945873	0	0	0
285	1	94	31	0	26	0	120	0.799835909856483	0	0	0
286	1	71	147	1	29	0	120	0.485967892920598	0	0	0
287	0	139	5	1	31	0	120	0.75190433813259	1	0	0
288	1	44	58	1	30	0	122	0.671742178034037	1	0	0
289	0	107	128	1	30	0	120	0.601681166095659	1	0	0
290	0	27	77	1	29	0	120	0.71930448198691	1	0	0
291	0	91	11	0	28	0	120	0.535985723137856	1	0	0
292	0	62	63	0	27	0	120	0.623883087886497	1	0	0
293	1	2	57	1	26	0	120	0.524000465171412	0	0	0
294	0	73	141	0	29	0	120	0.549174810992554	1	0	0
295	1	56	14	0	28	0	120	0.52517878706567	0	0	0
296	1	10	8	1	30	0	120	1.09331705397926	0	0	0
297	1	117	21	1	33	0	120	0.511066436069086	0	0	0
298	1	106	22	0	35	0	122	0.591431877110153	1	0	0
299	1	96	92	0	34	0	122	0.645568157080561	1	0	0
300	1	147	72	1	33	0	120	0.457337982952595	0	0	0
