Trial	Gender_Face1	Face1_nb	Face2_nb	Right_left_flip	Nb_Bubbles	Overlap_Target	Response	RT	Accuracy	Simi2Target	Trial_Reward
1	0	80	108	1	30	0	122	0.972519937029574	1	0	0
2	0	135	120	1	27	0	120	1.06019686703803	0	0	0
3	1	7	149	1	35	0	120	0.638263082015328	1	0	0
4	0	33	31	1	33	0	122	0.724783099023625	1	0	0
5	0	32	89	1	31	0	122	1.01371128100436	1	0	0
6	0	76	95	1	29	0	122	0.765310037008021	1	0	0
7	1	13	3	1	26	0	120	0.675709087983705	1	0	0
8	0	14	83	1	24	0	122	0.920096017012838	1	0	0
9	1	88	102	1	22	0	122	0.898586570983753	0	0	0
10	0	7	19	0	29	0	120	3.67754432198126	0	0	0
11	1	126	61	0	35	0	120	0.66044377698563	1	0	0
12	0	124	137	1	33	0	122	0.627894413017202	1	0	0
13	0	103	95	1	31	0	122	0.524589148990344	1	0	0
14	1	47	101	0	29	0	120	0.532683815981727	1	0	0
15	1	42	67	0	27	0	120	0.966648261004593	1	0	0
16	0	93	16	1	26	0	122	0.510772407986224	1	0	0
17	1	102	5	1	24	0	120	0.555309648974799	1	0	0
18	1	107	33	0	22	0	120	1.07201019703643	1	0	0
19	1	45	72	0	20	0	120	0.878925650031306	1	0	0
20	0	7	139	0	18	0	122	0.606277782993857	1	0	0
21	0	140	36	1	16	0	122	0.683986096992157	1	0	0
22	1	53	134	0	15	0	120	0.558726807008497	1	0	0
23	1	45	42	1	13	0	122	1.34280633600429	0	0	0
24	0	69	116	0	18	0	122	0.984866691986099	1	0	0
25	0	29	31	0	16	0	122	1.71964550105622	1	0	0
26	1	103	9	1	15	0	120	1.84555867803283	1	0	0
27	1	120	88	0	13	0	120	0.596981203998439	1	0	0
28	1	54	68	1	11	0	120	0.61170976102585	1	0	0
29	1	23	51	1	10	0	120	0.644273839949165	1	0	0
30	0	142	40	0	8	0	122	6.12460240500513	1	0	0
31	0	68	20	1	7	0	122	3.11802183097461	1	0	0
32	1	140	19	0	5	0	120	1.67855632200371	1	0	0
33	1	15	115	0	4	0	122	3.65255772601813	0	0	0
34	1	61	104	0	8	0	122	2.7333014329779	0	0	0
35	0	57	118	0	12	0	122	5.37346367695136	1	0	0
36	1	75	146	0	11	0	120	2.06783988402458	1	0	0
37	1	12	144	0	9	0	120	2.07180502801202	1	0	0
38	0	65	78	0	8	0	120	1.52279363997513	0	0	0
39	1	88	27	1	12	0	120	0.660913639992941	1	0	0
40	0	132	113	0	11	0	122	3.21195673104376	1	0	0
41	1	126	130	1	9	0	120	0.797342387959361	1	0	0
42	0	73	150	1	8	0	122	1.57221961696632	1	0	0
43	1	63	8	1	7	0	122	3.54713190195616	0	0	0
44	1	12	7	1	11	0	122	3.62738458201056	0	0	0
45	0	66	57	0	15	0	120	1.60407191794366	0	0	0
46	0	117	139	1	19	0	120	1.0368339199922	0	0	0
47	0	59	98	0	23	0	120	17.9819523289916	0	0	0
48	1	47	147	0	27	0	120	0.718508493038826	1	0	0
49	0	148	2	1	25	0	120	4.16376515099546	0	0	0
50	1	96	63	0	29	0	120	0.831529936986044	1	0	0
51	0	123	43	0	28	0	122	1.58806884702062	1	0	0
52	0	119	136	1	27	0	120	1.01145123201422	0	0	0
53	0	113	97	1	30	0	120	1.00323810899863	0	0	0
54	1	146	27	0	34	0	122	0.741788498009555	0	0	0
55	1	35	116	1	38	0	122	1.34402100596344	0	0	0
56	0	144	133	1	42	0	122	0.802698243991472	1	0	0
57	1	87	77	0	40	0	122	1.03015103103826	0	0	0
58	0	82	40	0	44	0	120	3.67371473502135	0	0	0
59	1	40	122	1	48	0	120	1.48544633598067	1	0	0
60	1	39	31	0	46	0	120	1.04444606701145	1	0	0
61	0	47	10	1	45	0	122	0.620261719974224	1	0	0
62	0	136	149	0	44	0	122	2.92585325695109	1	0	0
63	0	74	72	1	43	0	122	1.55871656397358	1	0	0
64	0	73	138	1	42	0	122	1.05406642501475	1	0	0
65	1	107	111	0	41	0	120	0.54989421000937	1	0	0
66	0	108	9	1	39	0	122	0.781125510053243	1	0	0
67	0	50	144	1	38	0	122	2.18836781999562	1	0	0
68	1	14	111	0	37	0	122	1.19089461298427	0	0	0
69	1	23	107	1	40	0	122	0.930710466986056	0	0	0
70	0	27	40	1	44	0	122	1.1145562310121	1	0	0
71	1	39	113	0	43	0	122	1.94788040500134	0	0	0
72	1	117	147	1	46	0	120	3.67704883101396	1	0	0
73	0	80	130	1	45	0	122	0.754024035995826	1	0	0
74	1	75	100	0	44	0	120	0.615536787023302	1	0	0
75	1	8	110	1	43	0	122	1.35698934597895	0	0	0
76	0	146	107	1	46	0	122	0.732395669969264	1	0	0
77	0	109	137	1	45	0	122	0.878598110983148	1	0	0
78	1	16	79	0	44	0	120	0.997546172991861	1	0	0
79	0	125	43	1	43	0	122	1.53869620797923	1	0	0
80	1	55	44	1	42	0	122	0.698748257011175	0	0	0
81	0	93	87	0	45	0	122	0.612734246009495	1	0	0
82	1	4	142	1	44	0	122	0.838434188975953	0	0	0
83	0	59	15	0	46	0	120	0.587153876957018	0	0	0
84	1	54	34	1	49	0	120	0.641977899009362	1	0	0
85	1	5	17	0	48	0	120	0.58308988797944	1	0	0
86	0	126	37	0	48	0	122	0.662687949952669	1	0	0
87	0	96	39	1	47	0	122	0.665148382948246	1	0	0
88	1	68	132	0	46	0	120	0.565541682008188	1	0	0
89	0	2	105	1	45	0	122	0.724766915955115	1	0	0
90	0	144	41	0	44	0	122	0.652089508017525	1	0	0
91	0	53	90	0	43	0	122	1.11554419895401	1	0	0
92	1	97	70	0	42	0	120	0.636045060993638	1	0	0
93	0	95	110	1	41	0	122	0.629876243998297	1	0	0
94	0	88	112	0	40	0	122	0.783635729982052	1	0	0
95	1	56	20	0	39	0	120	0.647543002967723	1	0	0
96	0	20	46	0	39	0	122	2.46963336801855	1	0	0
97	1	147	101	1	38	0	122	0.700506141001824	0	0	0
98	0	96	71	1	40	0	122	0.561823865980841	1	0	0
99	0	89	43	1	39	0	122	0.677700706990436	1	0	0
100	1	84	1	1	39	0	120	0.588303508993704	1	0	0
101	1	97	104	0	39	0	120	0.997281024989206	1	0	0
102	0	28	114	1	36	0	122	0.897687821008731	1	0	0
103	0	73	103	1	34	0	122	0.604127113008872	1	0	0
104	0	98	73	0	31	0	122	1.03921846399317	1	0	0
105	0	85	1	0	29	0	122	0.638933841022663	1	0	0
106	0	36	59	0	26	0	122	0.573026789003052	1	0	0
107	1	131	68	1	24	0	120	1.18051754002227	1	0	0
108	1	18	133	0	21	0	120	0.631518141017295	1	0	0
109	0	139	30	0	19	0	122	0.783584586984944	1	0	0
110	1	131	113	0	16	0	120	0.789674194995314	1	0	0
111	1	20	130	1	14	0	122	0.87702223204542	0	0	0
112	0	37	64	1	22	0	122	1.13977073301794	1	0	0
113	1	74	142	0	19	0	122	0.888067181047518	0	0	0
114	1	25	114	0	26	0	122	3.3465411659563	0	0	0
115	0	88	137	1	33	0	122	0.77955060498789	1	0	0
116	0	43	38	0	31	0	120	1.18969325197395	0	0	0
117	1	1	18	0	37	0	120	0.685056279005948	1	0	0
118	0	47	2	0	35	0	122	0.7868160729995	1	0	0
119	0	58	142	0	33	0	120	0.829465255956165	0	0	0
120	0	76	45	0	39	0	122	2.855525890016	1	0	0
121	1	22	102	0	37	0	120	0.762312699051108	1	0	0
122	0	26	90	1	36	0	122	0.869716542016249	1	0	0
123	0	18	132	0	34	0	122	0.742621107958257	1	0	0
124	1	9	15	1	32	0	120	0.926064531027805	1	0	0
125	0	33	70	1	30	0	122	0.636534399993252	1	0	0
126	0	85	81	1	29	0	122	0.861301322001964	1	0	0
127	0	16	94	0	27	0	122	1.26048742001876	1	0	0
128	0	84	72	1	25	0	122	0.635161586978938	1	0	0
129	0	138	75	1	24	0	122	0.723879358964041	1	0	0
130	0	8	28	0	22	0	122	0.989114859024994	1	0	0
131	1	123	61	1	20	0	120	0.604372981004417	1	0	0
132	0	124	46	1	19	0	122	0.629272260994185	1	0	0
133	0	9	31	0	17	0	120	1.08548790198984	0	0	0
134	1	48	112	0	22	0	120	0.564689943974372	1	0	0
135	0	78	9	0	20	0	120	1.42118466203101	0	0	0
136	1	40	113	0	25	0	120	0.58104539901251	1	0	0
137	0	42	112	1	23	0	120	0.549456798995379	0	0	0
138	0	48	10	1	28	0	120	0.788068633002695	0	0	0
139	1	149	150	1	32	0	120	0.720429615990724	1	0	0
140	1	66	71	1	31	0	122	0.733447531005368	0	0	0
141	1	94	144	0	35	0	120	0.621080679004081	1	0	0
142	1	38	53	1	34	0	120	1.01992413302651	1	0	0
143	0	39	27	1	32	0	120	1.37964940897655	0	0	0
144	0	150	49	1	36	0	122	0.70332942699315	1	0	0
145	0	125	33	1	35	0	120	1.07639205601299	0	0	0
146	1	126	3	0	39	0	120	0.783862506970763	1	0	0
147	0	32	123	1	38	0	120	3.06305317999795	0	0	0
148	1	36	25	1	42	0	122	1.00650351500371	0	0	0
149	1	30	110	1	46	0	122	0.933180242020171	0	0	0
150	1	40	61	0	49	0	120	0.854111521970481	1	0	0
151	0	101	40	0	48	0	122	1.09268894698471	1	0	0
152	1	38	1	1	47	0	120	1.71183735999512	1	0	0
153	1	13	144	1	46	0	122	1.03746822505491	0	0	0
154	0	8	109	0	49	0	122	0.695048265042715	1	0	0
155	1	105	77	1	48	0	120	0.917226972000208	1	0	0
156	1	23	149	0	47	0	122	1.58266194496537	0	0	0
157	0	141	78	1	50	0	122	0.875952724018134	1	0	0
158	1	5	106	0	49	0	120	0.811770411964972	1	0	0
159	0	27	64	1	48	0	122	0.910501575039234	1	0	0
160	1	37	1	1	47	0	122	1.06694239203352	0	0	0
161	0	132	23	1	50	0	122	0.90274255402619	1	0	0
162	1	70	60	0	49	0	122	1.36388724797871	0	0	0
163	1	40	109	0	53	0	120	0.711981083964929	1	0	0
164	0	140	73	1	51	0	122	0.637870398000814	1	0	0
165	1	110	104	1	50	0	120	0.531179789977614	1	0	0
166	1	28	10	0	49	0	120	0.742567050969228	1	0	0
167	0	70	92	1	48	0	122	0.796757253003307	1	0	0
168	1	50	17	1	47	0	122	1.06945182901109	0	0	0
169	0	80	120	1	50	0	122	0.716949268011376	1	0	0
170	0	141	41	1	49	0	122	0.722679628990591	1	0	0
171	0	59	16	0	48	0	122	0.852769068966154	1	0	0
172	0	62	112	1	47	0	122	1.23499340401031	1	0	0
173	1	145	34	1	46	0	120	0.556483484979253	1	0	0
174	0	29	108	0	45	0	122	0.692966380971484	1	0	0
175	1	23	70	1	44	0	120	2.6585219540284	1	0	0
176	1	78	62	1	43	0	120	0.686890456010588	1	0	0
177	1	44	69	0	42	0	122	0.830138514982536	0	0	0
178	0	66	139	0	45	0	122	0.710490274010226	1	0	0
179	0	29	134	0	44	0	122	0.523764271987602	1	0	0
180	1	50	52	0	43	0	120	0.598526138986927	1	0	0
181	1	60	5	1	42	0	120	0.748615859018173	1	0	0
182	1	83	94	0	41	0	120	0.692540979012847	1	0	0
183	0	15	21	0	40	0	122	0.687385707977228	1	0	0
184	0	95	116	0	40	0	122	0.649968834011815	1	0	0
185	1	81	103	0	39	0	120	0.78222597198328	1	0	0
186	0	149	70	0	38	0	122	1.18985669803806	1	0	0
187	0	19	66	1	37	0	122	1.14049458497902	1	0	0
188	0	101	75	0	36	0	122	1.59550516103627	1	0	0
189	0	11	6	1	35	0	122	0.817826658952981	1	0	0
190	1	101	6	0	34	0	120	2.45678880205378	1	0	0
191	1	57	67	0	34	0	122	0.812563913001213	0	0	0
192	0	78	87	0	36	0	122	0.86327277199598	1	0	0
193	0	55	148	0	35	0	122	1.22161510802107	1	0	0
194	0	122	1	0	34	0	120	0.815205745981075	0	0	0
195	1	76	10	0	37	0	122	1.18140308995498	0	0	0
196	0	30	72	0	39	0	122	0.930173264001496	1	0	0
197	0	28	7	0	38	0	122	0.560265959997196	1	0	0
198	0	130	29	0	38	0	122	1.30759915098315	1	0	0
199	1	114	82	0	37	0	120	0.637269510014448	1	0	0
200	1	14	13	0	36	0	122	1.50129819294671	0	0	0
201	1	55	18	0	38	0	120	1.70453054999234	1	0	0
202	0	89	39	1	35	0	122	0.603107869043015	1	0	0
203	0	31	99	0	33	0	122	0.532159516995307	1	0	0
204	1	64	149	1	30	0	120	0.629625949019101	1	0	0
205	1	147	48	1	28	0	122	0.58267222600989	0	0	0
206	1	36	130	0	35	0	120	0.463063117000274	1	0	0
207	0	15	104	1	33	0	122	0.685620317992289	1	0	0
208	0	5	133	0	31	0	122	0.684522925992496	1	0	0
209	0	116	122	0	29	0	122	0.758757136005443	1	0	0
210	0	18	94	1	26	0	120	0.695489066012669	0	0	0
211	1	71	111	1	33	0	120	0.8124727869872	1	0	0
212	0	75	71	0	31	0	122	0.575196945050266	1	0	0
213	1	146	15	1	29	0	122	0.687140340043698	0	0	0
214	0	57	66	1	35	0	122	0.917481506010517	1	0	0
215	0	18	113	0	33	0	120	0.963608842983376	0	0	0
216	1	74	98	0	39	0	122	2.0505406690063	0	0	0
217	1	76	30	1	45	0	122	1.14243325800635	0	0	0
218	0	9	71	0	50	0	122	0.694322043971624	1	0	0
219	1	69	30	1	48	0	120	0.581912854977418	1	0	0
220	1	104	78	0	47	0	120	0.945766156946775	1	0	0
221	1	51	86	0	45	0	120	0.700304967991542	1	0	0
222	1	85	90	1	43	0	120	1.26721098000417	1	0	0
223	0	107	126	0	42	0	122	0.966360989026725	1	0	0
224	1	89	21	1	40	0	120	0.885976555000525	1	0	0
225	0	109	134	1	38	0	122	0.98896056500962	1	0	0
226	0	128	34	0	37	0	122	0.96870582603151	1	0	0
227	1	21	22	1	35	0	120	0.579351238033269	1	0	0
228	1	18	136	1	34	0	120	0.557630012976006	1	0	0
229	1	103	95	1	32	0	122	1.09385500301141	0	0	0
230	1	120	105	1	37	0	122	1.3333923270111	0	0	0
231	0	27	68	0	41	0	122	1.2770550409914	1	0	0
232	1	36	22	1	40	0	120	0.564129210019019	1	0	0
233	1	16	11	0	38	0	122	2.15670594602125	0	0	0
234	0	149	21	0	43	0	122	0.90025633701589	1	0	0
235	1	111	133	1	41	0	120	1.19695408304688	1	0	0
236	0	24	39	0	40	0	122	0.85718683101004	1	0	0
237	1	117	119	1	39	0	120	0.813298149965703	1	0	0
238	0	26	45	1	37	0	122	0.846233069023583	1	0	0
239	1	76	89	1	36	0	122	1.04624353698455	0	0	0
240	0	66	100	0	40	0	122	0.629813941952307	1	0	0
241	0	88	53	0	39	0	122	0.767116981034633	1	0	0
242	1	128	94	1	37	0	120	0.834184641949832	1	0	0
243	0	110	99	0	36	0	120	3.72031708795112	0	0	0
244	0	132	106	0	40	0	122	1.42754509102087	1	0	0
245	1	8	130	1	39	0	122	1.29322440095711	0	0	0
246	1	12	130	0	42	0	120	0.736956954991911	1	0	0
247	1	31	26	1	41	0	120	0.620247242972255	1	0	0
248	1	83	129	0	40	0	120	0.711496368981898	1	0	0
249	0	96	24	0	39	0	122	0.572492057981435	1	0	0
250	0	44	80	0	38	0	122	0.608046597975772	1	0	0
251	0	146	98	1	36	0	122	0.813804628036451	1	0	0
252	1	94	14	0	35	0	122	1.43537568900501	0	0	0
253	0	149	39	0	39	0	122	0.556346748024225	1	0	0
254	1	118	102	1	38	0	120	0.892349192989059	1	0	0
255	0	113	147	0	37	0	122	0.908753953000996	1	0	0
256	1	81	28	0	35	0	122	0.594445255992468	0	0	0
257	1	26	26	0	39	0	120	0.734902444004547	1	0	0
258	1	79	129	0	38	0	120	0.64219993801089	1	0	0
259	1	12	100	1	37	0	120	0.97564159904141	1	0	0
260	1	96	89	0	36	0	120	1.05549218598753	1	0	0
261	1	53	5	1	35	0	120	0.795294299954548	1	0	0
262	1	61	123	0	34	0	120	1.06863327900646	1	0	0
263	1	92	25	0	33	0	120	0.709322336013429	1	0	0
264	0	68	11	0	32	0	120	0.701989219989628	0	0	0
265	1	94	138	0	35	0	120	1.5254957320285	1	0	0
266	0	112	115	0	34	0	122	0.977140047005378	1	0	0
267	0	72	30	0	33	0	122	0.787455659010448	1	0	0
268	0	15	89	1	32	0	122	0.662641136033926	1	0	0
269	0	119	49	1	31	0	120	1.10285704495618	0	0	0
270	0	14	16	1	34	0	122	1.17147147504147	1	0	0
271	1	150	146	1	33	0	120	0.619382237026002	1	0	0
272	0	150	129	0	32	0	122	0.716938677011058	1	0	0
273	0	74	23	0	31	0	122	0.983152583008632	1	0	0
274	1	16	121	1	30	0	120	0.60399040998891	1	0	0
275	0	130	143	1	29	0	122	0.59141928399913	1	0	0
276	1	46	129	0	28	0	122	1.02109047299018	0	0	0
277	0	39	23	1	31	0	122	0.974364264984615	1	0	0
278	1	113	46	1	30	0	120	0.718061271007173	1	0	0
279	0	42	13	0	29	0	122	1.14047323097475	1	0	0
280	0	19	59	0	28	0	120	0.627594285004307	0	0	0
281	0	7	84	1	31	0	122	0.716210552956909	1	0	0
282	1	49	42	1	30	0	120	0.593866035982501	1	0	0
283	1	82	134	1	29	0	120	1.4448148959782	1	0	0
284	1	142	102	0	28	0	120	0.669339217012748	1	0	0
285	1	54	79	0	27	0	120	0.590051731967833	1	0	0
286	1	2	125	1	26	0	120	0.698115638981108	1	0	0
287	0	2	6	1	26	0	122	2.56560901994817	1	0	0
288	0	141	131	0	25	0	120	1.1892563009751	0	0	0
289	1	36	29	1	27	0	120	0.714223182003479	1	0	0
290	1	22	27	0	26	0	120	0.531147661968134	1	0	0
291	0	23	4	0	26	0	120	0.953596353007015	0	0	0
292	1	75	120	0	28	0	120	3.66948664700612	1	0	0
293	0	60	5	0	27	0	122	0.619141887989827	1	0	0
294	0	18	36	0	26	0	122	1.81992160703521	1	0	0
295	0	121	9	0	26	0	122	0.902458143013064	1	0	0
296	0	143	30	1	25	0	122	1.50100352999289	1	0	0
297	0	37	63	0	24	0	122	1.30084787501255	1	0	0
298	1	52	124	0	23	0	122	0.868650306016207	0	0	0
299	1	26	37	0	26	0	122	0.6597796419519	0	0	0
300	1	79	110	0	28	0	120	0.875739059993066	1	0	0
