Trial	Gender_Face1	Face1_nb	Face2_nb	Right_left_flip	Nb_Bubbles	Overlap_Target	Response	RT	Accuracy	Simi2Target	Trial_Reward
1	0	92	105	1	21	0	120	1.90411261000554	1	0	0
2	0	76	37	0	18	0	120	0.519067114000791	1	0	0
3	0	133	99	0	16	0	122	0.691809269002988	0	0	0
4	0	148	64	1	24	0	120	0.91491646799841	1	0	0
5	1	40	17	0	21	0	122	2.21894035799778	1	0	0
6	0	91	108	0	19	0	120	0.647787523004808	1	0	0
7	0	47	73	0	17	0	120	0.642243683003471	1	0	0
8	0	118	52	1	14	0	122	1.2060738250002	0	0	0
9	1	95	117	1	21	0	122	0.732170297997072	1	0	0
10	1	27	128	1	19	0	120	2.09130392699444	0	0	0
11	1	26	122	1	26	0	122	3.01358228801109	1	0	0
12	1	73	9	0	24	0	122	1.2580601219961	1	0	0
13	1	75	126	0	22	0	122	1.68486250999558	1	0	0
14	1	139	70	0	20	0	120	1.56658987000992	0	0	0
15	0	129	117	0	26	0	120	0.573293455992825	1	0	0
16	1	10	4	0	24	0	120	1.24402808099694	0	0	0
17	1	84	90	1	30	0	122	1.11899565800559	1	0	0
18	1	107	37	1	28	0	122	0.624087431991939	1	0	0
19	1	38	61	0	26	0	122	0.772556575000635	1	0	0
20	1	131	116	1	25	0	120	1.55328897599247	0	0	0
21	1	41	24	0	30	0	120	1.07314657499956	0	0	0
22	1	13	113	0	35	0	120	0.835097800998483	0	0	0
23	1	120	106	1	40	0	120	4.78259091298969	0	0	0
24	0	61	125	0	45	0	120	0.772888323001098	1	0	0
25	1	7	47	1	43	0	122	0.811250573999132	1	0	0
26	0	70	127	1	42	0	120	1.55282483900373	1	0	0
27	0	113	14	1	40	0	120	0.959787263011094	1	0	0
28	0	27	28	1	39	0	122	0.75881553599902	0	0	0
29	0	68	43	0	43	0	120	1.4372592199943	1	0	0
30	1	13	68	0	42	0	122	1.25642303000495	1	0	0
31	1	125	17	0	40	0	120	1.06877725799859	0	0	0
32	1	43	68	0	44	0	120	1.36642785799631	0	0	0
33	0	147	35	1	49	0	120	0.669399364007404	1	0	0
34	1	85	39	1	47	0	120	1.58357638400048	0	0	0
35	1	67	50	1	52	0	122	1.47798305199831	1	0	0
36	0	135	13	1	50	0	122	2.75919616900501	0	0	0
37	1	116	79	0	54	0	120	1.15817811799934	0	0	0
38	0	22	119	0	58	0	120	1.10238588599896	1	0	0
39	0	36	8	1	57	0	120	1.09498699699179	1	0	0
40	1	90	96	0	56	0	122	0.863854217997869	1	0	0
41	1	63	18	0	54	0	122	2.21135279499867	1	0	0
42	1	46	111	0	53	0	120	0.895694245991763	0	0	0
43	0	68	7	1	57	0	120	1.21013478700479	1	0	0
44	0	66	121	0	56	0	120	2.03061356300896	1	0	0
45	0	122	5	0	55	0	120	2.36192181099614	1	0	0
46	1	144	139	1	53	0	120	1.80104384700826	0	0	0
47	0	81	98	0	57	0	120	0.990300099001615	1	0	0
48	1	5	126	0	56	0	122	0.572477676993003	1	0	0
49	0	89	36	1	55	0	120	0.666688657991472	1	0	0
50	1	51	129	0	54	0	122	0.613035791000584	1	0	0
51	0	95	7	0	53	0	122	0.777589625999099	0	0	0
52	0	98	36	0	56	0	120	0.608149238003534	1	0	0
53	0	10	39	1	55	0	122	0.757033139991108	0	0	0
54	0	139	95	1	58	0	120	1.11596358499082	1	0	0
55	1	53	100	0	57	0	122	1.6124624570075	1	0	0
56	1	29	133	1	56	0	120	1.03341310299584	0	0	0
57	1	117	109	0	59	0	122	1.39713636900706	1	0	0
58	1	147	76	0	58	0	122	1.01869360500132	1	0	0
59	0	39	59	0	57	0	120	0.655654746995424	1	0	0
60	0	66	88	0	56	0	120	0.675292045008973	1	0	0
61	0	1	91	0	55	0	120	0.749281066993717	1	0	0
62	1	17	65	1	54	0	120	0.892678115007584	0	0	0
63	1	60	79	1	57	0	122	0.605750016009551	1	0	0
64	0	82	65	0	56	0	120	0.635345581991714	1	0	0
65	1	109	127	1	55	0	120	0.839193143998273	0	0	0
66	1	138	96	1	58	0	122	0.858242671994958	1	0	0
67	1	62	69	1	57	0	122	0.558451909993892	1	0	0
68	0	150	44	1	56	0	120	0.774549198002205	1	0	0
69	0	48	2	1	55	0	120	1.14767941999889	1	0	0
70	1	49	126	0	54	0	122	0.755878894997295	1	0	0
71	0	139	90	1	53	0	122	0.679593198001385	0	0	0
72	0	44	99	0	56	0	120	0.644928517009248	1	0	0
73	1	39	15	1	55	0	120	0.728001059003873	0	0	0
74	1	92	80	0	58	0	122	0.671810151994578	1	0	0
75	0	67	5	0	57	0	120	0.939184828006546	1	0	0
76	0	17	58	0	56	0	120	0.623701320000691	1	0	0
77	0	59	119	0	55	0	120	0.997561847005272	1	0	0
78	1	78	54	0	54	0	122	0.651194410005701	1	0	0
79	1	140	31	0	53	0	122	0.543516913006897	1	0	0
80	1	115	9	1	53	0	120	0.734913060994586	0	0	0
81	1	119	40	0	55	0	122	0.870426267996663	1	0	0
82	0	37	91	0	54	0	122	2.56956645099854	0	0	0
83	0	97	127	0	57	0	120	0.558830865993514	1	0	0
84	0	78	4	0	56	0	120	0.758375381003134	1	0	0
85	1	125	68	0	55	0	122	1.18116939300671	1	0	0
86	0	21	28	0	54	0	120	0.707892570993863	1	0	0
87	1	128	65	1	54	0	122	0.572733632987365	1	0	0
88	1	11	64	0	53	0	122	0.682851040008245	1	0	0
89	1	49	56	1	52	0	122	0.653215817990713	1	0	0
90	1	140	127	1	51	0	122	0.719984634008142	1	0	0
91	0	112	144	0	50	0	120	1.33659472200088	1	0	0
92	1	115	67	0	50	0	122	1.04793372300628	1	0	0
93	1	129	139	0	49	0	122	1.252008734009	1	0	0
94	0	127	58	0	48	0	122	0.958334023001953	0	0	0
95	0	1	96	1	50	0	120	0.566031619004207	1	0	0
96	0	15	4	0	50	0	120	0.628164706999087	1	0	0
97	1	17	111	0	49	0	122	0.631637375990977	1	0	0
98	0	62	119	0	48	0	120	0.636374084002455	1	0	0
99	1	131	119	1	47	0	122	2.49565172099392	1	0	0
100	0	148	52	1	47	0	120	2.91312781699526	1	0	0
101	1	93	100	0	46	0	122	0.791927735990612	1	0	0
102	1	116	40	0	43	0	122	0.769460673996946	1	0	0
103	0	21	5	0	41	0	120	0.598120316994027	1	0	0
104	1	41	59	1	38	0	122	1.13631515399902	1	0	0
105	0	66	97	1	36	0	120	0.816453252991778	1	0	0
106	0	105	148	1	33	0	120	1.19757443098933	1	0	0
107	0	104	122	0	31	0	122	0.619087598999613	0	0	0
108	1	8	47	0	38	0	122	0.879115492003621	1	0	0
109	0	145	101	1	36	0	122	0.974803858989617	0	0	0
110	0	19	44	1	43	0	122	1.50254972200491	0	0	0
111	0	68	135	0	49	0	120	0.599487252999097	1	0	0
112	1	121	116	0	47	0	122	0.749225434003165	1	0	0
113	0	102	78	1	45	0	120	0.753678911001771	1	0	0
114	0	51	136	1	43	0	120	0.650722887003212	1	0	0
115	1	130	25	1	41	0	122	0.678017903992441	1	0	0
116	0	110	149	1	39	0	120	4.94470546099183	1	0	0
117	1	14	54	1	37	0	120	0.727743241004646	0	0	0
118	0	127	13	0	43	0	122	2.16661865101196	0	0	0
119	1	62	76	0	48	0	122	0.895521219004877	1	0	0
120	1	119	58	0	47	0	122	1.19277736901131	1	0	0
121	1	20	125	0	45	0	122	1.02260219000163	1	0	0
122	1	119	137	0	43	0	120	2.46569005299534	0	0	0
123	1	119	122	1	48	0	122	4.65296807300183	1	0	0
124	1	71	22	1	46	0	120	3.55956782599969	0	0	0
125	0	114	37	1	51	0	122	1.17422143599833	0	0	0
126	1	20	110	1	56	0	122	1.23723029700341	1	0	0
127	1	67	58	1	55	0	122	0.832745705993148	1	0	0
128	1	42	13	0	53	0	122	1.77154454799893	1	0	0
129	0	44	3	1	52	0	120	5.58658337799716	1	0	0
130	1	118	14	0	50	0	122	1.9429897749942	1	0	0
131	1	1	47	1	49	0	122	1.27970188600011	1	0	0
132	1	74	78	1	47	0	122	2.88838808100263	1	0	0
133	1	56	8	0	46	0	120	0.898771436986863	0	0	0
134	0	17	64	1	50	0	122	2.61210892700183	0	0	0
135	1	73	96	0	55	0	122	3.48828942200635	1	0	0
136	0	145	71	1	53	0	120	2.15385880299436	1	0	0
137	0	94	116	0	52	0	120	1.00123611598974	1	0	0
138	0	126	122	1	50	0	120	1.09343585000897	1	0	0
139	1	78	109	1	49	0	122	0.840448468996328	1	0	0
140	0	65	66	1	48	0	120	0.947027868998703	1	0	0
141	1	14	68	1	46	0	120	6.28249793199939	0	0	0
142	1	100	120	0	50	0	122	1.27701972900832	1	0	0
143	0	29	135	1	49	0	120	1.23939514100493	1	0	0
144	1	56	25	0	48	0	120	1.40318357400247	0	0	0
145	0	96	138	0	51	0	120	2.31904685200425	1	0	0
146	1	111	112	0	50	0	122	2.97588242100028	1	0	0
147	1	134	22	0	49	0	122	2.88602518600237	1	0	0
148	1	104	46	1	48	0	122	1.39921104400128	1	0	0
149	1	99	112	0	47	0	122	1.18887114200334	1	0	0
150	1	50	130	1	45	0	120	3.17007549699338	0	0	0
151	0	66	110	1	49	0	122	1.28792151500238	0	0	0
152	1	61	26	1	53	0	122	0.68955463799648	1	0	0
153	0	101	143	0	51	0	122	1.17145222199906	0	0	0
154	0	72	72	1	55	0	120	0.730051553997328	1	0	0
155	1	109	148	0	54	0	122	0.921265602999483	1	0	0
156	1	83	29	1	53	0	122	1.03400036299718	1	0	0
157	1	84	127	0	52	0	122	0.918614406997222	1	0	0
158	1	121	114	1	50	0	122	1.06231843899877	1	0	0
159	0	38	104	0	49	0	120	1.08109322599194	1	0	0
160	1	44	66	1	48	0	120	0.835282697997172	0	0	0
161	1	79	55	0	51	0	122	1.77435471200442	1	0	0
162	1	115	10	0	50	0	122	1.38164378500369	1	0	0
163	1	92	59	1	49	0	122	2.706819050989	1	0	0
164	1	147	61	1	48	0	120	2.5640064199979	0	0	0
165	1	127	147	1	51	0	120	2.86717384400254	0	0	0
166	0	88	90	0	54	0	122	3.31867720599985	0	0	0
167	0	77	44	1	57	0	120	0.733775838991278	1	0	0
168	1	149	84	1	56	0	120	0.67080583400093	0	0	0
169	1	108	136	1	59	0	122	1.07321058100206	1	0	0
170	1	133	93	0	58	0	120	3.81186927499948	0	0	0
171	1	11	70	1	61	0	122	1.12811819299532	1	0	0
172	0	91	58	0	60	0	120	0.792921770000248	1	0	0
173	1	123	48	1	59	0	122	1.11075377999805	1	0	0
174	1	37	144	0	58	0	122	0.959063393995166	1	0	0
175	0	5	140	1	57	0	120	0.725908847001847	1	0	0
176	1	143	143	1	57	0	122	0.806719250002061	1	0	0
177	0	107	65	1	56	0	120	3.41101620798872	1	0	0
178	0	15	28	0	55	0	120	0.728220440010773	1	0	0
179	1	50	36	1	54	0	122	0.832599934001337	1	0	0
180	0	146	16	1	53	0	120	2.65249572700122	1	0	0
181	1	124	104	0	52	0	122	1.37588923399744	1	0	0
182	1	115	20	1	51	0	122	1.92568887399102	1	0	0
183	1	24	60	0	50	0	120	1.7577796009864	0	0	0
184	1	90	87	0	53	0	122	0.684620768006425	1	0	0
185	1	22	103	0	52	0	122	0.823002149001695	1	0	0
186	1	149	73	0	51	0	120	1.23562185400806	0	0	0
187	0	100	57	0	54	0	120	2.04683668600046	1	0	0
188	0	91	74	0	53	0	120	0.592998856998747	1	0	0
189	0	141	26	0	52	0	120	1.40732090400707	1	0	0
190	0	52	78	1	51	0	120	1.88450459799787	1	0	0
191	1	114	111	0	50	0	122	0.726212755995221	1	0	0
192	1	81	14	1	50	0	122	0.622438007005258	1	0	0
193	0	88	76	1	49	0	120	1.250092236005	1	0	0
194	0	8	83	1	48	0	120	0.974489335989347	1	0	0
195	0	67	81	1	47	0	120	0.793851060007	1	0	0
196	1	143	139	0	46	0	122	0.754125856998144	1	0	0
197	0	136	14	0	46	0	120	0.689721907008789	1	0	0
198	0	94	109	0	45	0	120	0.882656312009203	1	0	0
199	0	87	145	1	44	0	120	1.11703796499933	1	0	0
200	0	102	93	0	43	0	120	0.67771765399084	1	0	0
201	0	126	38	1	43	0	120	0.914813732000766	1	0	0
202	0	103	42	0	40	0	120	0.542728018001071	1	0	0
203	0	125	20	1	38	0	122	1.91682102899358	0	0	0
204	0	91	3	0	46	0	120	0.858059649006464	1	0	0
205	0	46	150	0	43	0	120	1.246221451991	1	0	0
206	1	103	93	1	41	0	122	2.81787921499927	1	0	0
207	0	111	4	1	39	0	120	1.05362639600935	1	0	0
208	1	12	22	1	36	0	122	1.46479339699727	1	0	0
209	1	93	25	1	34	0	122	0.739019273009035	1	0	0
210	0	101	113	1	32	0	120	0.921962634994998	1	0	0
211	0	8	76	1	30	0	120	0.707679811996059	1	0	0
212	0	31	146	1	27	0	120	1.58090715800063	1	0	0
213	0	90	67	1	25	0	120	0.75460685500002	1	0	0
214	0	75	57	1	23	0	122	0.585633301991038	0	0	0
215	1	81	66	0	30	0	122	0.55134070701024	1	0	0
216	1	42	16	0	28	0	120	2.64651699899696	0	0	0
217	0	77	99	0	34	0	120	0.609977203988819	1	0	0
218	1	84	118	1	32	0	122	0.710789785996894	1	0	0
219	0	93	69	1	30	0	120	0.800115712001571	1	0	0
220	1	128	31	0	28	0	122	1.1884539169987	1	0	0
221	1	88	9	1	26	0	122	0.883327043993631	1	0	0
222	1	40	91	0	24	0	122	0.780449742989731	1	0	0
223	0	36	144	1	22	0	120	0.68311301500944	1	0	0
224	0	34	4	1	21	0	120	0.772850369001389	1	0	0
225	1	93	6	1	19	0	122	0.920015726005659	1	0	0
226	0	3	47	1	17	0	122	4.25949231299455	0	0	0
227	0	91	122	0	23	0	120	1.39887137699407	1	0	0
228	0	94	116	1	21	0	122	2.01099885400617	0	0	0
229	0	107	56	0	26	0	122	3.72039704700001	0	0	0
230	1	54	95	1	31	0	120	1.02453524299199	0	0	0
231	1	19	48	1	36	0	122	0.725157352004317	1	0	0
232	0	103	109	1	34	0	120	0.661806237010751	1	0	0
233	0	105	36	0	33	0	120	1.15228589100298	1	0	0
234	0	144	92	1	31	0	120	0.926468525998644	1	0	0
235	0	10	134	0	30	0	120	2.52793106999889	1	0	0
236	0	25	97	0	28	0	120	1.31967064998753	1	0	0
237	1	5	44	1	27	0	120	2.74356446400634	0	0	0
238	0	148	64	1	31	0	120	1.26322735499707	1	0	0
239	0	121	104	1	30	0	120	1.34539725600916	1	0	0
240	1	30	55	1	28	0	122	1.19807512799161	1	0	0
241	1	69	93	1	27	0	122	1.48675986699527	1	0	0
242	0	57	63	1	25	0	120	1.54432121099671	1	0	0
243	1	109	66	0	24	0	122	1.3831421549985	1	0	0
244	1	129	107	0	23	0	122	1.07774100299866	1	0	0
245	0	88	35	0	21	0	120	1.23121233699203	1	0	0
246	0	148	25	1	20	0	120	1.85177706400282	1	0	0
247	1	26	38	1	19	0	120	5.75850429700222	0	0	0
248	1	104	101	0	23	0	120	2.54979616300261	0	0	0
249	0	131	115	0	26	0	122	1.99716243700823	0	0	0
250	1	112	127	0	30	0	122	4.37105878599687	1	0	0
251	1	48	84	1	29	0	122	1.40842931299994	1	0	0
252	0	73	73	0	28	0	120	1.88537626799371	1	0	0
253	0	64	124	1	26	0	122	1.64714040599938	0	0	0
254	1	71	108	0	30	0	120	1.74666679200891	0	0	0
255	1	134	111	1	34	0	122	3.47422486300638	1	0	0
256	1	135	97	0	33	0	122	1.01224716599972	1	0	0
257	1	107	39	1	31	0	122	0.784789051002008	1	0	0
258	1	131	112	1	30	0	122	1.02305189699109	1	0	0
259	1	150	124	0	29	0	122	2.85964338899066	1	0	0
260	0	109	116	0	28	0	120	1.31820247499854	1	0	0
261	1	145	72	1	27	0	122	2.37482600500516	1	0	0
262	0	134	10	0	26	0	120	7.50053535500774	1	0	0
263	0	50	89	1	25	0	120	4.30998903200089	1	0	0
264	1	41	83	0	23	0	120	1.92390716799127	0	0	0
265	0	51	52	1	27	0	120	0.679113349993713	1	0	0
266	1	133	91	1	26	0	122	0.768088071999955	1	0	0
267	1	117	41	1	25	0	120	1.5506287140015	0	0	0
268	1	107	142	1	28	0	122	1.59805420400517	1	0	0
269	1	40	15	0	27	0	120	1.13174970500404	0	0	0
270	1	59	113	0	30	0	122	0.84003586700419	1	0	0
271	1	91	104	1	29	0	120	2.11241505898943	0	0	0
272	0	79	107	1	32	0	120	0.792461826000363	1	0	0
273	1	102	19	1	31	0	122	0.702305744998739	1	0	0
274	1	110	148	0	30	0	122	2.14398087598966	1	0	0
275	1	141	12	1	29	0	122	1.526601724996	1	0	0
276	0	82	13	1	28	0	120	1.27840866699989	1	0	0
277	1	93	85	1	27	0	122	0.721157745996607	1	0	0
278	1	64	10	1	26	0	122	0.737520797003526	1	0	0
279	1	23	77	1	25	0	122	0.880850386005477	1	0	0
280	0	13	119	0	24	0	122	3.61138565100555	0	0	0
281	1	126	65	1	27	0	122	1.35976434599434	1	0	0
282	0	126	3	1	26	0	120	0.950453391997144	1	0	0
283	0	132	20	0	25	0	122	2.08580327400705	0	0	0
284	0	64	16	1	28	0	120	2.82366527899285	1	0	0
285	1	6	46	1	27	0	122	0.771338999998989	1	0	0
286	1	1	80	1	26	0	122	1.20223808399169	1	0	0
287	0	132	52	0	25	0	122	2.71062650000385	0	0	0
288	1	137	90	0	28	0	122	0.919144829997094	1	0	0
289	0	145	101	0	27	0	120	1.24010561700561	1	0	0
290	1	9	32	1	26	0	120	2.34767062099127	0	0	0
291	1	117	18	0	29	0	120	1.03539255399664	0	0	0
292	0	94	81	0	31	0	120	1.0708788040065	1	0	0
293	0	143	40	0	31	0	120	0.696529951994307	1	0	0
294	0	15	76	1	30	0	122	1.94249867899634	0	0	0
295	0	28	137	1	32	0	122	2.07430548299453	0	0	0
296	1	2	4	1	35	0	122	2.59576903800189	1	0	0
297	0	109	113	1	34	0	122	2.08102393000445	0	0	0
298	1	66	18	0	36	0	122	1.96381309900607	1	0	0
299	0	16	122	1	36	0	122	1.5141922509938	0	0	0
300	0	94	80	1	38	0	122	3.0991879820067	0	0	0
301	1	137	23	0	41	0	120	1.14735960699909	0	0	0
302	1	84	137	0	49	0	122	0.60754382199957	1	0	0
303	1	73	2	0	46	0	122	0.61027157701028	1	0	0
304	1	42	25	0	44	0	122	0.565545541001484	1	0	0
305	1	59	2	1	42	0	122	0.603847367994604	1	0	0
306	1	48	115	0	40	0	122	0.616604356997414	1	0	0
307	1	44	141	0	37	0	120	0.804987533003441	0	0	0
308	0	21	89	1	44	0	120	0.72960070600675	1	0	0
309	1	10	2	1	42	0	122	0.625448589998996	1	0	0
310	1	23	34	0	40	0	122	1.14234126299561	1	0	0
311	0	123	5	1	38	0	120	0.597980930993799	1	0	0
312	1	99	24	1	36	0	122	0.931383458999335	1	0	0
313	0	144	15	1	34	0	120	0.62624378700275	1	0	0
314	1	44	43	1	32	0	122	2.16669306000404	1	0	0
315	0	134	53	0	30	0	122	2.4456667839986	0	0	0
316	1	132	134	0	36	0	122	1.02574740799901	1	0	0
317	1	126	37	1	34	0	122	0.789470402000006	1	0	0
318	1	65	62	0	32	0	122	0.699760771007277	1	0	0
319	0	48	19	1	30	0	120	2.08517400700657	1	0	0
320	0	11	64	1	28	0	122	1.3503688260098	0	0	0
321	0	80	92	0	34	0	120	0.796584167997935	1	0	0
322	1	17	33	1	32	0	122	3.30735223500233	1	0	0
323	0	5	108	1	30	0	120	0.963784570005373	1	0	0
324	0	122	145	0	29	0	120	0.994747643009759	1	0	0
325	1	39	135	1	27	0	122	0.910920498994528	1	0	0
326	0	37	32	1	25	0	122	0.920722988987109	0	0	0
327	0	119	144	0	30	0	122	0.929590785992332	0	0	0
328	1	134	140	0	35	0	122	1.04940711399831	1	0	0
329	0	22	75	0	33	0	120	0.917060678009875	1	0	0
330	1	146	65	0	32	0	122	1.09992016300384	1	0	0
331	1	84	110	1	30	0	122	0.870478056007414	1	0	0
332	0	137	69	1	29	0	120	0.640786224001204	1	0	0
333	0	67	59	1	27	0	120	2.0693655340001	1	0	0
334	0	147	120	0	26	0	120	0.670992041996215	1	0	0
335	0	148	133	0	24	0	122	1.20924681499309	0	0	0
336	0	139	99	0	29	0	120	0.678352546005044	1	0	0
337	0	65	119	0	27	0	122	1.52715350499784	0	0	0
338	1	107	17	0	32	0	122	0.81577874199138	1	0	0
339	0	71	62	0	30	0	122	1.0449906510039	0	0	0
340	1	7	98	0	34	0	122	0.752274956990732	1	0	0
341	0	107	129	1	33	0	120	1.57907780499954	1	0	0
342	1	38	8	1	32	0	122	0.669153650000226	1	0	0
343	1	14	23	0	30	0	122	0.943758892986807	1	0	0
344	1	11	9	0	29	0	122	1.03855737399135	1	0	0
345	1	12	11	0	28	0	122	4.89096725299896	1	0	0
346	0	71	39	0	26	0	120	0.828618516999995	1	0	0
347	1	119	112	1	25	0	122	1.83203803800279	1	0	0
348	0	138	104	0	24	0	120	0.796390496005188	1	0	0
349	0	33	71	0	23	0	120	1.53711523600214	1	0	0
350	0	104	40	0	21	0	120	1.01012795000861	1	0	0
351	0	68	64	0	20	0	120	0.982768292989931	1	0	0
352	1	98	111	1	19	0	122	1.22817722900072	1	0	0
353	0	97	150	1	18	0	120	0.784579123996082	1	0	0
354	1	43	61	1	17	0	122	0.885683747997973	1	0	0
355	0	32	77	0	16	0	120	0.936023361995467	1	0	0
356	1	136	138	1	15	0	120	0.479543595007272	0	0	0
357	1	12	145	0	18	0	122	1.36899690999417	1	0	0
358	1	53	44	1	17	0	122	1.18360443798883	1	0	0
359	0	128	71	1	16	0	120	1.62658897700021	1	0	0
360	1	56	108	1	15	0	122	2.3298993579956	1	0	0
361	1	44	135	0	13	0	120	1.68931097901077	0	0	0
362	0	129	57	0	17	0	122	1.16337356099393	0	0	0
363	0	146	123	1	20	0	120	1.57083255900943	1	0	0
364	1	53	30	0	19	0	120	1.12904593200074	0	0	0
365	1	141	76	1	22	0	122	1.2640739769995	1	0	0
366	0	109	2	0	21	0	120	4.13137440799619	1	0	0
367	0	35	126	1	20	0	120	1.16330579899659	1	0	0
368	0	3	76	0	19	0	120	0.762094689998776	1	0	0
369	1	130	96	0	18	0	122	0.961060663001263	1	0	0
370	1	56	55	0	17	0	122	1.38254407299974	1	0	0
371	1	143	51	1	16	0	120	1.59707109100418	0	0	0
372	0	67	56	0	19	0	120	0.650280680987635	1	0	0
373	1	1	51	1	18	0	120	1.03012799000135	0	0	0
374	0	28	119	1	21	0	120	0.690359653002815	1	0	0
375	0	101	92	0	20	0	120	0.756133691989817	1	0	0
376	1	33	77	1	19	0	120	0.69902502700279	0	0	0
377	1	33	39	0	21	0	122	0.568876370991347	1	0	0
378	1	87	96	0	21	0	122	1.26659173700318	1	0	0
379	1	100	44	0	20	0	122	1.08480335200147	1	0	0
380	1	73	24	1	19	0	122	0.894224367002607	1	0	0
381	0	87	24	1	18	0	122	1.76006403900101	0	0	0
382	1	33	80	0	21	0	122	0.670294047013158	1	0	0
383	0	1	149	1	20	0	120	0.936574524996104	1	0	0
384	0	20	123	0	19	0	120	0.737070857998333	1	0	0
385	0	81	101	0	18	0	120	0.751822302991059	1	0	0
386	0	35	72	1	17	0	120	0.631129810994025	1	0	0
387	0	83	146	1	16	0	122	0.610783776995959	0	0	0
388	1	110	11	1	19	0	122	1.04852875800862	1	0	0
389	0	65	119	0	18	0	122	1.61708103799901	0	0	0
390	1	106	3	0	20	0	120	1.15160619499511	0	0	0
391	0	25	18	1	23	0	122	1.55875640899467	0	0	0
392	1	48	137	1	25	0	120	0.780997174995719	0	0	0
393	0	96	22	1	28	0	120	1.47305473199231	1	0	0
394	0	10	106	0	27	0	120	0.669981350001763	1	0	0
395	0	99	119	0	26	0	120	0.520268526001018	1	0	0
396	1	44	3	1	25	0	120	0.561353714001598	0	0	0
397	1	25	106	1	28	0	120	0.598866378990351	0	0	0
398	0	38	3	0	30	0	120	0.965190650997101	1	0	0
399	0	70	82	0	30	0	122	0.667635381003493	0	0	0
400	1	132	112	1	32	0	122	1.54991438100114	1	0	0
401	1	121	23	0	31	0	122	0.631372873991495	1	0	0
402	1	12	77	1	28	0	122	0.52779848499631	1	0	0
403	0	132	54	0	25	0	120	1.0305176289985	1	0	0
404	0	87	112	1	22	0	120	3.57564290700248	1	0	0
405	0	24	29	1	20	0	122	2.17399585999374	0	0	0
406	1	22	37	1	28	0	122	0.859599175004405	1	0	0
407	0	77	122	0	25	0	120	0.871344326995313	1	0	0
408	0	25	8	1	23	0	122	0.657298785008607	0	0	0
409	1	73	42	1	31	0	122	1.14861149800709	1	0	0
410	1	141	13	1	28	0	122	1.23534239499713	1	0	0
411	0	69	92	1	26	0	120	0.663108155000373	1	0	0
412	0	38	80	0	24	0	120	1.27353848901112	1	0	0
413	0	92	126	0	21	0	120	0.908293963992037	1	0	0
414	1	8	33	0	19	0	122	1.42134270099632	1	0	0
415	0	51	114	1	17	0	120	1.37709191199974	1	0	0
416	0	45	107	0	14	0	120	0.760127019995707	1	0	0
417	0	38	80	0	12	0	120	1.5584632819955	1	0	0
418	1	35	70	1	10	0	122	1.46235557101318	1	0	0
419	0	89	78	1	8	0	120	2.00820196099812	1	0	0
420	1	18	93	0	5	0	122	1.27724664300331	1	0	0
421	1	24	127	1	3	0	122	2.69588492199546	1	0	0
422	1	39	125	1	1	0	122	2.46488075799425	1	0	0
423	1	122	132	1	1	0	122	1.09963250700093	1	0	0
424	0	19	148	1	1	0	122	0.93231386799016	0	0	0
425	1	74	127	0	3	0	122	1.15622741699917	1	0	0
426	1	80	72	0	1	0	120	2.61985714999901	0	0	0
427	1	124	1	0	7	0	122	2.7439392870001	1	0	0
428	1	148	114	0	5	0	120	1.43605310400017	0	0	0
429	1	19	7	1	11	0	122	1.30725075799273	1	0	0
430	1	28	113	0	9	0	122	0.708367605999229	1	0	0
431	0	99	80	1	7	0	122	1.39676078299817	0	0	0
432	1	137	107	1	13	0	122	1.67395334299363	1	0	0
433	0	16	115	1	11	0	120	1.84319910600607	1	0	0
434	1	47	4	0	9	0	122	1.09569276499678	1	0	0
435	1	72	135	0	7	0	122	1.14530633999675	1	0	0
436	1	84	66	0	6	0	122	1.31188095199468	1	0	0
437	1	53	136	1	4	0	122	2.80911356999422	1	0	0
438	0	46	130	0	2	0	120	1.60556258400902	1	0	0
439	0	120	14	0	1	0	120	1.10675270300999	1	0	0
440	0	59	135	1	1	0	120	0.971585780003807	1	0	0
441	0	4	120	1	1	0	120	0.473480114000267	1	0	0
442	0	119	18	1	1	0	120	2.72474608200719	1	0	0
443	1	42	26	1	1	0	120	0.499969284996041	0	0	0
444	0	121	76	0	1	0	120	1.47811938500672	1	0	0
445	0	149	58	0	1	0	120	2.45691082600388	1	0	0
446	0	130	66	1	1	0	120	0.787284263002221	1	0	0
447	1	67	30	1	1	0	122	2.32076983500156	1	0	0
448	0	124	147	1	1	0	120	0.688426584994886	1	0	0
449	1	12	131	1	1	0	120	0.586757976998342	0	0	0
450	1	135	83	1	1	0	120	2.21588002200588	0	0	0
451	1	44	57	0	1	0	120	0.453182176002883	0	0	0
452	1	2	71	1	4	0	120	1.20821770999464	0	0	0
453	1	63	47	1	8	0	122	2.62152565600991	1	0	0
454	1	5	11	0	7	0	122	4.06537540799764	1	0	0
455	0	140	141	0	6	0	122	0.667725834995508	0	0	0
456	0	127	145	0	10	0	122	0.526433096005348	0	0	0
457	1	90	64	1	14	0	122	1.67024130899517	1	0	0
458	1	7	43	1	13	0	122	1.5049157780013	1	0	0
459	0	73	92	0	11	0	120	1.78639593099069	1	0	0
460	1	76	130	1	10	0	122	0.702858303004177	1	0	0
461	0	79	88	1	9	0	120	2.13594531700073	1	0	0
462	1	62	145	0	7	0	122	1.12043109399383	1	0	0
463	1	110	35	0	6	0	122	1.38475646699953	1	0	0
464	1	82	144	1	5	0	122	1.33523154399882	1	0	0
465	0	13	108	0	4	0	122	0.661814541002968	0	0	0
466	1	106	90	0	7	0	120	1.99355647800257	0	0	0
467	1	57	110	0	11	0	120	1.18258596000669	0	0	0
468	0	141	137	1	15	0	122	0.996922200996778	0	0	0
469	0	124	72	0	19	0	120	1.49059391800256	1	0	0
470	0	120	61	0	17	0	120	0.931424945010804	1	0	0
471	1	107	121	0	16	0	122	1.39625649800291	1	0	0
472	1	89	109	1	15	0	122	1.39353770099115	1	0	0
473	0	147	64	1	14	0	122	0.863404094008729	0	0	0
474	0	84	59	1	17	0	120	1.16731960899779	1	0	0
475	1	101	143	1	16	0	120	0.928025134999189	0	0	0
476	0	72	29	1	20	0	120	0.695225304007181	1	0	0
477	0	68	29	1	18	0	120	2.28979464899749	1	0	0
478	1	29	57	1	17	0	120	0.978164044994628	0	0	0
479	1	69	23	1	21	0	120	0.920722056995146	0	0	0
480	0	69	105	0	24	0	120	0.856785339987255	1	0	0
481	1	122	58	0	23	0	122	0.769634169002529	1	0	0
482	1	133	147	1	22	0	122	1.15479928201239	1	0	0
483	0	92	13	1	21	0	120	1.16832524799975	1	0	0
484	0	84	54	1	20	0	120	1.06399265999789	1	0	0
485	0	104	101	0	18	0	120	2.53010754400748	1	0	0
486	0	89	90	0	17	0	120	0.874118106003152	1	0	0
487	0	70	81	1	16	0	120	0.732677470005001	1	0	0
488	1	97	131	0	15	0	120	0.725783195986878	0	0	0
489	1	18	49	0	18	0	120	0.685282386009931	0	0	0
490	1	90	43	1	22	0	120	0.774773434997769	0	0	0
491	0	95	44	0	25	0	120	0.573702730005607	1	0	0
492	0	31	148	0	24	0	120	0.659801693007466	1	0	0
493	0	61	57	0	23	0	120	0.653798064988223	1	0	0
494	0	77	27	0	22	0	122	0.689506569004152	0	0	0
495	0	24	12	1	25	0	122	1.25883463100763	0	0	0
496	1	81	121	0	28	0	122	0.765915218013106	1	0	0
497	0	55	98	1	27	0	120	1.22824737100746	1	0	0
498	0	106	149	0	26	0	120	1.08864062499197	1	0	0
499	0	137	137	0	25	0	120	0.737471896994975	1	0	0
500	1	125	21	0	24	0	122	1.09660094500578	1	0	0
