Trial	Gender_Face1	Face1_nb	Face2_nb	Right_left_flip	Nb_Bubbles	Overlap_Target	Response	RT	Accuracy	Simi2Target	Trial_Reward
1	1	80	84	1	65	0	122	0.933220379054546	1	0	0
2	1	141	104	1	62	0	120	1.3405358500313	0	0	0
3	0	142	141	1	70	0	120	0.910828639985994	1	0	0
4	1	54	94	1	68	0	122	0.668025964987464	1	0	0
5	0	150	7	0	66	0	120	0.726136215031147	1	0	0
6	0	68	118	1	64	0	120	0.917792373918928	1	0	0
7	1	57	55	1	61	0	122	0.878829914960079	1	0	0
8	1	122	107	0	59	0	122	0.680018385057338	1	0	0
9	0	134	103	1	57	0	120	0.58623452601023	1	0	0
10	1	108	143	1	55	0	122	1.05554488894995	1	0	0
11	1	8	27	1	52	0	120	1.01005529297981	0	0	0
12	1	103	8	1	59	0	120	1.44626675301697	0	0	0
13	0	127	118	0	65	0	120	0.705266740988009	1	0	0
14	0	95	121	0	64	0	120	1.47465781599749	1	0	0
15	1	82	114	0	62	0	122	0.604618387995288	1	0	0
16	0	109	91	0	60	0	120	0.880896931979805	1	0	0
17	1	7	96	1	58	0	122	0.634585684980266	1	0	0
18	0	107	108	1	56	0	120	0.798287749988958	1	0	0
19	0	53	27	0	54	0	120	1.18677850300446	1	0	0
20	0	24	144	0	52	0	122	0.832004533964209	0	0	0
21	0	142	44	0	58	0	120	1.25187091401313	1	0	0
22	1	26	15	1	56	0	122	0.74312992405612	1	0	0
23	1	66	141	0	54	0	120	0.821610865066759	0	0	0
24	0	123	14	0	59	0	120	0.906029129982926	1	0	0
25	0	62	139	0	58	0	120	1.06712322402745	1	0	0
26	1	33	136	1	56	0	120	0.805836986051872	0	0	0
27	0	84	81	1	61	0	120	0.770670355996117	1	0	0
28	1	22	30	0	59	0	122	0.816122301039286	1	0	0
29	1	15	30	1	58	0	122	0.764250300009735	1	0	0
30	1	77	125	1	56	0	122	0.970830046921037	1	0	0
31	1	111	54	1	55	0	122	0.77646239195019	1	0	0
32	0	116	125	0	53	0	120	0.775109232985415	1	0	0
33	0	36	67	1	52	0	120	0.644840901950374	1	0	0
34	0	127	111	0	50	0	120	0.888977507012896	1	0	0
35	0	120	139	0	49	0	120	0.961898225941695	1	0	0
36	1	24	59	0	47	0	120	1.12061518104747	0	0	0
37	0	121	100	1	51	0	120	1.43291207193397	1	0	0
38	0	17	86	0	50	0	120	0.717231567017734	1	0	0
39	0	21	147	1	49	0	120	0.660644171060994	1	0	0
40	0	41	24	0	47	0	120	0.85594062297605	1	0	0
41	1	52	38	1	46	0	122	0.682105508982204	1	0	0
42	1	45	105	1	45	0	122	0.603937307023443	1	0	0
43	1	32	71	1	43	0	120	0.808996638981625	0	0	0
44	1	122	91	0	47	0	122	3.67743359704036	1	0	0
45	1	60	150	0	46	0	122	0.751058395951986	1	0	0
46	1	70	91	1	45	0	122	0.726391937001608	1	0	0
47	1	109	25	1	43	0	120	0.637379428022541	0	0	0
48	1	81	149	0	47	0	120	0.625118021038361	0	0	0
49	0	98	140	1	51	0	122	0.853498187032528	0	0	0
50	0	107	90	1	55	0	122	0.759652136010118	0	0	0
51	0	22	148	1	58	0	120	0.750288384966552	1	0	0
52	0	4	129	1	57	0	120	0.741819662041962	1	0	0
53	0	17	72	0	56	0	120	0.709634565981105	1	0	0
54	1	99	9	1	55	0	122	0.662453321041539	1	0	0
55	0	10	54	0	53	0	120	1.04861209704541	1	0	0
56	1	97	133	0	52	0	122	0.804294247995131	1	0	0
57	1	67	8	0	51	0	122	1.21599480498116	1	0	0
58	1	72	11	1	50	0	120	0.7693356720265	0	0	0
59	0	6	76	0	53	0	120	1.39523481600918	1	0	0
60	0	56	119	0	52	0	120	1.44733701494988	1	0	0
61	0	99	15	1	51	0	122	1.02624144300353	0	0	0
62	1	108	15	1	54	0	122	0.877540910965763	1	0	0
63	0	4	72	0	53	0	120	0.85558475391008	1	0	0
64	0	50	119	0	52	0	120	1.16215028893203	1	0	0
65	1	5	121	1	51	0	122	0.696633503073826	1	0	0
66	1	70	73	1	50	0	122	0.745691473945044	1	0	0
67	1	80	36	0	49	0	120	0.865016478928737	0	0	0
68	0	42	47	0	52	0	122	0.987611377961002	0	0	0
69	0	13	30	0	55	0	122	0.681297147995792	0	0	0
70	0	24	97	1	58	0	120	1.20367179100867	1	0	0
71	1	41	115	0	57	0	120	0.927467138972133	0	0	0
72	1	18	108	0	60	0	122	0.94377652707044	1	0	0
73	1	115	91	0	59	0	122	1.03086981200613	1	0	0
74	0	150	125	0	58	0	120	0.810157580999658	1	0	0
75	1	40	52	0	57	0	122	0.758879031054676	1	0	0
76	1	99	84	0	56	0	122	0.678129739011638	1	0	0
77	1	44	102	0	55	0	120	0.894612223026343	0	0	0
78	1	32	91	0	58	0	120	1.47280446090735	0	0	0
79	1	86	143	0	61	0	122	0.834169398993254	1	0	0
80	0	20	126	0	60	0	122	1.41463878902141	0	0	0
81	0	100	22	1	63	0	120	0.866539841052145	1	0	0
82	0	14	42	1	62	0	120	0.835863223997876	1	0	0
83	1	100	17	1	61	0	120	1.28867022099439	0	0	0
84	1	144	135	0	64	0	120	2.3616844760254	0	0	0
85	1	10	49	0	67	0	122	0.775714572984725	1	0	0
86	1	147	64	1	66	0	120	1.66204903495964	0	0	0
87	0	130	114	0	69	0	120	0.719838607939892	1	0	0
88	0	80	104	0	68	0	120	0.903822298976593	1	0	0
89	1	84	115	0	67	0	122	0.729331818991341	1	0	0
90	1	32	69	1	66	0	120	0.760745392995887	0	0	0
91	1	72	109	0	69	0	122	0.694704015972093	1	0	0
92	0	31	41	0	68	0	120	0.792294915998355	1	0	0
93	0	20	81	1	67	0	120	1.0689903999446	1	0	0
94	0	64	27	1	66	0	120	0.894666117033921	1	0	0
95	1	132	112	1	65	0	122	0.792291408055462	1	0	0
96	1	52	68	1	64	0	122	0.940967257949524	1	0	0
97	1	121	129	0	63	0	122	0.732840809971094	1	0	0
98	0	55	121	0	62	0	120	0.772011174005456	1	0	0
99	1	144	28	1	62	0	120	0.946074509993196	0	0	0
100	1	32	54	0	64	0	122	0.840489231050014	1	0	0
101	1	134	114	0	63	0	120	1.06945194595028	0	0	0
102	0	124	88	1	71	0	120	0.55144615995232	1	0	0
103	1	22	135	0	68	0	122	0.705225624958985	1	0	0
104	0	142	36	0	66	0	120	0.638894218951464	1	0	0
105	0	62	7	1	64	0	120	0.722393481992185	1	0	0
106	1	116	38	0	62	0	120	0.513289825059474	0	0	0
107	0	103	131	0	69	0	120	0.570302317035384	1	0	0
108	1	130	109	0	67	0	122	0.88881744001992	1	0	0
109	0	126	134	0	64	0	120	0.65020072797779	1	0	0
110	1	146	75	1	62	0	120	0.588428364950232	0	0	0
111	0	47	140	0	69	0	120	0.521999155986123	1	0	0
112	0	63	27	0	67	0	120	1.00247029599268	1	0	0
113	1	32	39	1	65	0	122	0.679883123026229	1	0	0
114	0	71	61	0	63	0	120	0.721568287000991	1	0	0
115	1	136	69	1	61	0	122	0.69820458907634	1	0	0
116	1	25	114	1	59	0	120	0.658038627938367	0	0	0
117	0	26	94	0	65	0	120	0.732463277992792	1	0	0
118	0	32	84	0	63	0	120	0.756098243058659	1	0	0
119	0	75	115	0	61	0	120	0.794751047971658	1	0	0
120	1	62	107	1	59	0	122	0.680410976987332	1	0	0
121	1	57	4	0	58	0	122	0.729686022968963	1	0	0
122	0	17	106	1	56	0	120	0.609617981943302	1	0	0
123	0	146	2	0	54	0	120	0.838306747958995	1	0	0
124	0	12	130	0	52	0	120	1.20922367996536	1	0	0
125	1	147	137	1	51	0	120	0.677427919930778	0	0	0
126	0	42	147	1	56	0	120	0.759766507078893	1	0	0
127	0	137	43	1	54	0	120	0.525650735013187	1	0	0
128	0	61	99	1	53	0	120	0.653987879049964	1	0	0
129	1	125	17	1	51	0	122	0.664167776005343	1	0	0
130	1	131	11	1	49	0	122	0.793784728972241	1	0	0
131	1	128	126	0	48	0	120	1.12736936402507	0	0	0
132	0	88	117	1	52	0	122	0.911248350981623	0	0	0
133	1	103	141	0	57	0	120	0.871461692033336	0	0	0
134	0	62	134	0	61	0	120	0.65732931799721	1	0	0
135	1	88	61	1	60	0	122	0.81266694702208	1	0	0
136	1	24	56	1	58	0	122	0.6964016049169	1	0	0
137	1	69	67	1	57	0	122	0.602186125004664	1	0	0
138	0	1	70	0	56	0	120	0.574270509998314	1	0	0
139	0	3	57	0	54	0	120	0.597020269022323	1	0	0
140	1	21	67	1	53	0	122	0.841906626941636	1	0	0
141	0	72	95	0	52	0	120	0.636506739072502	1	0	0
142	1	44	100	0	50	0	120	0.575559120043181	0	0	0
143	1	143	6	0	54	0	122	1.23496638506185	1	0	0
144	0	144	107	0	53	0	120	0.921176558011211	1	0	0
145	1	66	31	1	52	0	122	0.793081574025564	1	0	0
146	0	150	4	0	50	0	120	0.638397620990872	1	0	0
147	1	131	84	0	49	0	122	1.13866560696624	1	0	0
148	0	88	20	1	48	0	122	1.6894142520614	0	0	0
149	1	30	119	0	51	0	120	1.44800492702052	0	0	0
150	1	29	22	0	55	0	122	1.06241310702171	1	0	0
151	1	82	69	1	54	0	122	0.888299857033417	1	0	0
152	0	56	137	0	53	0	120	1.29770152806304	1	0	0
153	0	103	121	1	52	0	120	0.962476808927022	1	0	0
154	0	121	20	1	50	0	122	0.761048953980207	0	0	0
155	1	11	38	0	54	0	122	0.61583341890946	1	0	0
156	1	135	148	1	53	0	122	1.25273110810667	1	0	0
157	0	43	26	1	52	0	120	1.04661281197332	1	0	0
158	0	37	52	1	51	0	120	0.658604970085435	1	0	0
159	1	92	8	1	49	0	122	0.548609539982863	1	0	0
160	1	51	71	0	48	0	122	0.572806979995221	1	0	0
161	1	98	94	1	47	0	122	0.563264373922721	1	0	0
162	1	27	82	0	46	0	122	0.873897952027619	1	0	0
163	0	99	9	0	45	0	120	0.730954841012135	1	0	0
164	0	10	39	0	44	0	120	0.67539545497857	1	0	0
165	0	119	141	0	43	0	120	0.828668089932762	1	0	0
166	0	112	79	1	42	0	122	1.00055016903207	0	0	0
167	1	82	127	0	45	0	122	0.629976800992154	1	0	0
168	0	116	6	0	44	0	122	1.00973316794261	0	0	0
169	0	100	94	1	47	0	120	0.637783046928234	1	0	0
170	0	108	38	1	46	0	120	0.76110023597721	1	0	0
171	0	36	19	1	45	0	120	0.551046375068836	1	0	0
172	1	2	14	0	44	0	122	0.686980359023437	1	0	0
173	1	5	120	1	43	0	122	0.624232304049656	1	0	0
174	1	100	52	1	42	0	120	0.843703892896883	0	0	0
175	1	125	125	0	45	0	120	0.606582658016123	0	0	0
176	0	138	106	1	48	0	120	0.57979739701841	1	0	0
177	1	132	46	1	47	0	122	0.64567859005183	1	0	0
178	0	2	91	1	46	0	120	0.564622305915691	1	0	0
179	1	122	13	0	45	0	122	0.7059385930188	1	0	0
180	1	83	36	0	44	0	122	0.651182622998022	1	0	0
181	1	126	74	1	43	0	122	0.644858906976879	1	0	0
182	1	136	86	0	42	0	122	0.672946033999324	1	0	0
183	1	31	59	1	42	0	122	0.691144520998932	1	0	0
184	1	100	145	1	41	0	122	0.748703373013996	1	0	0
185	1	118	47	0	40	0	120	0.871818732004613	0	0	0
186	0	145	38	0	42	0	120	0.772490944014862	1	0	0
187	0	70	74	0	42	0	120	0.738780710031278	1	0	0
188	1	6	98	1	41	0	122	0.792975081945769	1	0	0
189	1	57	72	1	40	0	120	0.798718653968535	0	0	0
190	0	64	136	1	42	0	120	0.708565797074698	1	0	0
191	1	62	130	1	42	0	120	0.716197915957309	0	0	0
192	0	111	107	0	44	0	120	0.725112308980897	1	0	0
193	1	9	69	1	43	0	122	0.901638985029422	1	0	0
194	1	142	13	1	42	0	120	0.742389805032872	0	0	0
195	1	149	57	1	45	0	120	0.605737550999038	0	0	0
196	1	129	42	1	47	0	122	0.66612433292903	1	0	0
197	0	22	47	0	46	0	120	0.659642732935026	1	0	0
198	0	94	16	1	45	0	120	0.590755508979782	1	0	0
199	0	45	64	1	45	0	120	0.649816818069667	1	0	0
200	0	7	112	0	44	0	120	0.638989225029945	1	0	0
201	0	30	141	0	43	0	120	0.836892863037065	1	0	0
202	1	10	86	1	40	0	122	0.567429072922096	1	0	0
203	1	42	3	1	38	0	120	0.689042396028526	0	0	0
204	1	134	99	0	46	0	120	0.70300936489366	0	0	0
205	0	74	71	1	52	0	120	0.768059825990349	1	0	0
206	1	80	136	1	50	0	122	0.782654725015163	1	0	0
207	1	52	69	0	48	0	120	0.892608403926715	0	0	0
208	0	75	101	1	55	0	120	0.661747500998899	1	0	0
209	0	87	110	0	53	0	120	0.70374304393772	1	0	0
210	0	77	112	0	51	0	120	0.632794081931934	1	0	0
211	1	37	73	1	49	0	120	0.973077570088208	0	0	0
212	1	24	41	0	55	0	120	1.04132274305448	0	0	0
213	1	129	21	0	60	0	122	0.677197783021256	1	0	0
214	1	35	147	0	59	0	120	0.774827383924276	0	0	0
215	0	70	2	0	64	0	120	0.701120642013848	1	0	0
216	1	145	102	0	62	0	122	0.725685284938663	1	0	0
217	0	140	5	1	61	0	120	0.933190291980281	1	0	0
218	0	78	11	1	59	0	122	0.781846079044044	0	0	0
219	1	39	90	0	64	0	122	0.619875940028578	1	0	0
220	0	95	4	0	63	0	120	0.623928698943928	1	0	0
221	0	39	16	1	61	0	120	0.546324383001775	1	0	0
222	0	139	79	1	59	0	120	0.755047122016549	1	0	0
223	0	2	129	0	58	0	120	0.704931443091482	1	0	0
224	1	89	37	0	56	0	122	1.27422968193423	1	0	0
225	0	132	88	1	55	0	120	0.636114786961116	1	0	0
226	1	124	34	0	53	0	122	1.48716920602601	1	0	0
227	0	38	99	1	52	0	120	0.585073916008696	1	0	0
228	0	66	107	1	50	0	122	1.19070154894143	0	0	0
229	1	102	40	0	55	0	122	0.81256561097689	1	0	0
230	1	82	6	0	53	0	120	0.753182720975019	0	0	0
231	1	61	69	0	58	0	120	0.751950838021003	0	0	0
232	1	107	142	1	62	0	122	0.734936933964491	1	0	0
233	1	41	21	1	61	0	120	0.727080716053024	0	0	0
234	0	65	118	0	65	0	120	1.11086868098937	1	0	0
235	1	103	23	0	63	0	122	1.20747496304102	1	0	0
236	1	15	53	0	62	0	120	1.44393979408778	0	0	0
237	0	5	12	1	66	0	120	0.574959207093343	1	0	0
238	1	108	90	1	65	0	120	1.12446285190526	0	0	0
239	1	27	73	1	69	0	122	0.789173058932647	1	0	0
240	1	125	117	0	67	0	122	1.08979035296943	1	0	0
241	1	89	93	1	66	0	122	0.970691071008332	1	0	0
242	0	61	7	0	65	0	120	0.69665673293639	1	0	0
243	0	130	117	0	64	0	120	0.626449790084735	1	0	0
244	0	123	147	0	62	0	120	0.566342098987661	1	0	0
245	0	54	35	0	61	0	120	0.95601925207302	1	0	0
246	0	11	105	0	60	0	120	0.746767855947837	1	0	0
247	1	124	22	1	59	0	120	1.34550917695742	0	0	0
248	0	124	69	1	62	0	120	0.656908903038129	1	0	0
249	1	20	57	0	61	0	122	1.09076401602942	1	0	0
250	1	105	77	0	60	0	122	2.68429597897921	1	0	0
251	0	51	28	0	59	0	122	0.750018235994503	0	0	0
252	1	1	103	0	62	0	122	0.749284100020304	1	0	0
253	0	139	52	0	61	0	120	0.67678973195143	1	0	0
254	0	124	44	1	60	0	120	0.598095259978436	1	0	0
255	1	75	145	1	59	0	122	0.707820044015534	1	0	0
256	1	12	69	0	58	0	120	0.851639739936218	0	0	0
257	0	131	11	1	61	0	120	0.662759345956147	1	0	0
258	1	109	35	1	60	0	122	1.01696675596759	1	0	0
259	1	54	54	0	59	0	122	0.842714548925869	1	0	0
260	1	65	4	1	58	0	122	0.720665640896186	1	0	0
261	1	87	120	1	57	0	122	0.816459886031225	1	0	0
262	1	122	113	0	56	0	122	2.02151794394013	1	0	0
263	1	31	128	1	55	0	122	0.801869899965823	1	0	0
264	1	140	134	1	54	0	122	0.590567867970094	1	0	0
265	1	49	100	1	53	0	122	0.652144332998432	1	0	0
266	0	123	15	0	52	0	120	0.686553063918836	1	0	0
267	0	124	20	1	52	0	120	0.68465028994251	1	0	0
268	1	44	140	0	51	0	120	0.697191494051367	0	0	0
269	1	79	16	0	53	0	122	0.738953744992614	1	0	0
270	0	84	67	0	52	0	120	2.94541089306585	1	0	0
271	0	55	118	0	51	0	120	1.37570048996713	1	0	0
272	1	92	99	1	51	0	122	0.741789020947181	1	0	0
273	0	118	49	1	50	0	122	0.877471177023835	0	0	0
274	0	5	96	0	52	0	120	0.703062946908176	1	0	0
275	1	114	79	0	51	0	120	0.783895045984536	0	0	0
276	1	117	40	0	54	0	120	1.18971100694034	0	0	0
277	1	125	92	0	57	0	122	0.691069395979866	1	0	0
278	0	57	138	1	56	0	120	0.659733498003334	1	0	0
279	1	86	59	0	55	0	120	0.798934331047349	0	0	0
280	0	95	42	1	57	0	120	0.547583380015567	1	0	0
281	1	115	108	1	57	0	120	0.667404847103171	0	0	0
282	1	45	78	1	59	0	122	0.596622799988836	1	0	0
283	1	56	53	1	58	0	122	0.698728585965	1	0	0
284	0	93	85	0	57	0	120	0.611498159938492	1	0	0
285	1	3	14	0	56	0	120	0.77582969609648	0	0	0
286	0	124	37	0	59	0	120	0.757306561921723	1	0	0
287	1	31	41	1	58	0	122	0.588886550976895	1	0	0
288	0	5	121	1	57	0	120	0.577692792983726	1	0	0
289	0	122	1	0	56	0	120	0.632310790009797	1	0	0
290	1	38	19	0	56	0	122	0.554996161954477	1	0	0
291	1	139	79	1	55	0	122	0.553985369042493	1	0	0
292	1	74	144	0	54	0	122	1.8973435680382	1	0	0
293	0	93	125	1	53	0	120	0.593567862990312	1	0	0
294	0	98	58	1	53	0	122	0.639100620057434	0	0	0
295	1	109	98	1	55	0	122	0.842078040004708	1	0	0
296	0	46	79	1	54	0	120	0.677300325944088	1	0	0
297	0	20	142	1	53	0	122	0.839440436917357	0	0	0
298	0	29	43	0	56	0	120	0.610342580010183	1	0	0
299	0	68	115	1	55	0	120	0.942410459974781	1	0	0
300	1	63	44	0	54	0	122	0.761967752012424	1	0	0
