Trial	Gender_Face1	Face1_nb	Face2_nb	Right_left_flip	Nb_Bubbles	Overlap_Target	Response	RT	Accuracy	Simi2Target	Trial_Reward
1	0	42	48	1	40	0	122	2.65270236297511	1	0	0
2	1	148	53	0	37	0	120	1.10821936401771	1	0	0
3	0	75	52	0	35	0	122	1.17532589903567	1	0	0
4	0	27	40	1	32	0	120	1.66837797698099	0	0	0
5	1	73	65	1	40	0	120	1.21814984001685	1	0	0
6	1	80	21	1	38	0	122	3.11861301300814	0	0	0
7	0	84	149	1	45	0	122	1.70320994401118	1	0	0
8	1	63	97	0	43	0	120	1.80681517196354	1	0	0
9	1	112	134	1	41	0	120	1.33308903296711	1	0	0
10	0	40	150	0	39	0	122	1.1340022769873	1	0	0
11	0	54	149	0	37	0	120	1.48532075702678	0	0	0
12	0	96	149	1	43	0	122	1.40760948596289	1	0	0
13	1	111	104	0	41	0	120	1.59826094796881	1	0	0
14	1	86	109	1	39	0	120	2.66777373402147	1	0	0
15	1	116	83	1	37	0	120	1.0148374279961	1	0	0
16	0	85	68	0	35	0	122	1.41126996802632	1	0	0
17	0	39	110	1	33	0	120	1.75314495002385	0	0	0
18	0	50	46	1	39	0	122	1.06338742701337	1	0	0
19	1	113	46	1	37	0	120	2.68393704999471	1	0	0
20	0	106	79	0	35	0	122	1.07816364098107	1	0	0
21	1	45	17	0	34	0	120	1.14498516102321	1	0	0
22	0	119	74	0	32	0	122	0.856784356001299	1	0	0
23	0	63	40	0	30	0	120	1.22045563795837	0	0	0
24	0	109	104	1	35	0	122	1.08019172400236	1	0	0
25	1	121	97	0	34	0	122	2.33930895902449	0	0	0
26	0	100	134	1	39	0	122	2.09198605001438	1	0	0
27	0	13	34	0	37	0	120	1.28524321701843	0	0	0
28	0	21	6	0	42	0	122	0.846457797975745	1	0	0
29	0	147	60	0	40	0	122	1.41094030800741	1	0	0
30	0	3	129	0	39	0	120	2.01621354796225	0	0	0
31	0	74	19	0	43	0	122	0.853937382984441	1	0	0
32	0	39	43	0	42	0	120	3.50462219800102	0	0	0
33	0	43	131	1	46	0	122	1.1456284240121	1	0	0
34	1	87	119	0	45	0	120	3.4747635939857	1	0	0
35	0	10	121	1	43	0	120	3.09362285601674	0	0	0
36	0	9	27	0	48	0	122	0.727709033002611	1	0	0
37	1	63	5	1	46	0	120	4.14307235996239	1	0	0
38	0	61	150	1	45	0	122	1.90387141000247	1	0	0
39	0	122	131	1	44	0	122	0.85717095201835	1	0	0
40	1	136	62	1	42	0	120	1.84433888300555	1	0	0
41	1	124	83	0	41	0	122	5.82500739197712	0	0	0
42	0	20	15	1	45	0	122	4.00542028102791	1	0	0
43	0	92	92	0	43	0	122	1.80184109997936	1	0	0
44	0	17	59	0	42	0	122	1.60008080804255	1	0	0
45	0	7	144	1	41	0	120	3.76375580800232	0	0	0
46	0	31	12	1	45	0	122	1.67617145401891	1	0	0
47	0	66	28	1	43	0	120	3.10172625898849	0	0	0
48	1	141	10	1	47	0	120	3.70341887400718	1	0	0
49	1	112	89	1	46	0	120	1.11289713100996	1	0	0
50	1	124	48	1	45	0	120	1.44980813801521	1	0	0
51	1	134	143	1	44	0	120	1.27011232200311	1	0	0
52	1	96	134	1	42	0	120	0.968926300993189	1	0	0
53	0	85	113	1	41	0	122	0.783749823982362	1	0	0
54	0	17	121	1	40	0	120	2.87917616497725	0	0	0
55	1	131	113	0	44	0	120	4.07284640602302	1	0	0
56	1	49	92	1	42	0	120	5.14007726201089	1	0	0
57	0	7	136	1	41	0	122	0.715406763018109	1	0	0
58	1	130	9	0	40	0	120	1.66052849899279	1	0	0
59	0	126	88	1	39	0	122	0.760467970045283	1	0	0
60	1	62	14	0	38	0	120	9.00691515899962	1	0	0
61	1	6	34	0	37	0	120	1.26071272301488	1	0	0
62	0	149	142	1	36	0	122	0.839710765983909	1	0	0
63	0	90	107	0	35	0	122	6.25195088400505	1	0	0
64	1	57	121	0	34	0	120	0.710955386981368	1	0	0
65	1	120	115	1	33	0	120	2.50413366698194	1	0	0
66	1	137	42	0	32	0	120	1.46615848504007	1	0	0
67	0	5	58	0	31	0	122	0.700961893016938	1	0	0
68	0	143	39	0	30	0	122	2.00626361800823	1	0	0
69	1	88	78	1	29	0	120	2.18025170604233	1	0	0
70	1	10	53	0	28	0	120	5.31595731497509	1	0	0
71	0	87	93	0	27	0	120	1.68495480797719	0	0	0
72	1	63	57	0	30	0	120	0.878944047028199	1	0	0
73	1	145	9	1	29	0	120	1.51239798398456	1	0	0
74	0	91	123	1	28	0	120	6.57735226897057	0	0	0
75	0	84	146	1	31	0	122	0.848943158984184	1	0	0
76	0	145	83	1	30	0	122	1.92560518998653	1	0	0
77	0	92	59	0	29	0	120	3.90204991697101	0	0	0
78	0	89	150	0	32	0	122	0.77525131800212	1	0	0
79	1	59	82	1	31	0	122	3.99559449398657	0	0	0
80	0	113	128	1	33	0	122	1.54709627100965	1	0	0
81	1	113	109	0	33	0	120	2.29918810800882	1	0	0
82	1	71	125	1	32	0	120	4.38992631901056	1	0	0
83	0	37	88	0	31	0	122	0.890446852019522	1	0	0
84	1	46	78	1	30	0	120	3.30157101195073	1	0	0
85	0	95	2	0	29	0	122	1.21352414204739	1	0	0
86	1	102	139	0	28	0	120	1.49918916501338	1	0	0
87	1	63	65	0	28	0	122	3.67016593797598	0	0	0
88	0	56	101	0	30	0	120	2.55206958699273	0	0	0
89	1	133	148	1	32	0	120	15.3678085919819	1	0	0
90	0	61	93	1	32	0	120	1.87745731900213	0	0	0
91	1	144	20	1	34	0	120	1.69712707301369	1	0	0
92	0	29	104	0	33	0	122	0.771503504016437	1	0	0
93	1	26	58	0	32	0	122	1.70558214699849	0	0	0
94	1	56	39	0	35	0	122	1.09004285599804	0	0	0
95	1	63	70	1	37	0	120	1.24400589399738	1	0	0
96	0	61	14	0	36	0	122	0.74445600801846	1	0	0
97	1	134	112	0	36	0	120	1.32843111199327	1	0	0
98	1	114	32	0	35	0	122	1.07375624403358	0	0	0
99	0	38	122	1	37	0	122	0.787022726959549	1	0	0
100	1	118	116	1	36	0	120	8.56207137199817	1	0	0
101	0	141	143	0	36	0	120	2.16749376198277	0	0	0
102	1	114	129	0	44	0	120	1.94660625100369	1	0	0
103	0	123	54	0	41	0	122	0.723913850961253	1	0	0
104	1	114	125	1	39	0	120	7.92540679400554	1	0	0
105	0	41	90	1	37	0	122	1.06310767796822	1	0	0
106	1	58	130	0	35	0	120	0.962842573993839	1	0	0
107	0	71	7	1	32	0	122	1.98582140298095	1	0	0
108	0	20	104	1	30	0	120	2.67138437199173	0	0	0
109	1	106	85	1	37	0	120	1.83486721996451	1	0	0
110	1	57	103	0	35	0	122	1.91795543499757	0	0	0
111	1	119	52	0	41	0	120	1.84819654998137	1	0	0
112	0	37	142	1	39	0	120	5.65945541905239	0	0	0
113	1	76	109	0	46	0	122	1.48624168301467	0	0	0
114	1	31	62	1	51	0	120	1.44027553300839	1	0	0
115	1	31	64	0	50	0	120	4.22086915094405	1	0	0
116	0	92	14	1	48	0	122	0.834631033998448	1	0	0
117	0	5	43	0	46	0	122	2.74146085395478	1	0	0
118	1	81	129	1	44	0	120	1.50179647898767	1	0	0
119	1	72	68	1	43	0	122	1.67146812495776	0	0	0
120	0	95	53	0	48	0	122	1.09656906698365	1	0	0
121	0	139	18	1	46	0	122	2.61947710101958	1	0	0
122	0	136	104	0	44	0	122	1.76768190297298	1	0	0
123	1	73	15	1	43	0	120	3.24632272101007	1	0	0
124	0	96	45	1	41	0	122	0.731372580979951	1	0	0
125	0	148	110	0	40	0	122	3.03569703403627	1	0	0
126	1	109	44	0	38	0	120	1.03929110104218	1	0	0
127	1	46	96	0	36	0	120	2.90754052996635	1	0	0
128	0	35	20	1	35	0	122	0.652862463961355	1	0	0
129	1	66	130	0	33	0	120	1.08036268805154	1	0	0
130	0	112	62	1	32	0	122	1.82623341499129	1	0	0
131	0	60	150	1	30	0	120	1.71068269503303	0	0	0
132	1	57	51	1	35	0	122	3.9114977340214	0	0	0
133	1	135	41	0	39	0	120	1.20198740600608	1	0	0
134	0	63	97	0	38	0	120	2.03918108699145	0	0	0
135	0	28	54	1	42	0	122	1.13948012696346	1	0	0
136	1	28	68	1	41	0	120	1.25008789304411	1	0	0
137	1	47	112	0	39	0	120	3.72566800401546	1	0	0
138	1	149	89	0	38	0	122	2.07139436900616	0	0	0
139	0	32	147	0	42	0	122	2.13868614000967	1	0	0
140	1	141	70	0	41	0	120	0.818029711954296	1	0	0
141	1	38	61	0	39	0	120	1.05374688404845	1	0	0
142	0	95	16	1	38	0	122	0.69869104999816	1	0	0
143	1	103	54	0	37	0	120	5.33164675300941	1	0	0
144	0	61	87	0	35	0	122	1.85308903199621	1	0	0
145	0	132	145	1	34	0	122	6.82297791203018	1	0	0
146	1	4	51	1	33	0	120	2.23601042601513	1	0	0
147	0	138	119	1	32	0	122	4.75224534998415	1	0	0
148	1	72	67	0	31	0	120	1.36741017800523	1	0	0
149	0	136	78	0	29	0	122	2.01415765297133	1	0	0
150	0	101	121	1	28	0	120	4.70094425603747	0	0	0
151	1	46	68	1	32	0	122	3.9901684760116	0	0	0
152	0	106	149	1	35	0	120	4.6344677869929	0	0	0
153	0	95	25	0	39	0	122	3.04853687499417	1	0	0
154	1	22	60	0	37	0	120	1.82878771098331	1	0	0
155	0	59	44	0	36	0	122	0.969177267979831	1	0	0
156	1	141	102	0	35	0	120	6.11150856001768	1	0	0
157	0	25	16	1	34	0	122	0.832356033031829	1	0	0
158	1	86	79	1	33	0	122	2.41300316498382	0	0	0
159	1	62	66	1	36	0	120	1.05033424898284	1	0	0
160	0	96	120	1	35	0	122	0.670869663008489	1	0	0
161	1	40	62	0	34	0	120	0.760300409048796	1	0	0
162	1	65	86	1	33	0	120	1.1927275719936	1	0	0
163	0	27	13	0	32	0	122	0.98943325295113	1	0	0
164	1	75	61	1	31	0	120	4.23601264494937	1	0	0
165	0	117	31	0	30	0	122	2.40815029398073	1	0	0
166	0	92	114	0	29	0	122	3.06226603797404	1	0	0
167	1	91	96	1	28	0	122	0.888981838012114	0	0	0
168	1	126	102	1	31	0	120	0.681926607969217	1	0	0
169	1	141	76	0	30	0	122	1.3099394349847	0	0	0
170	0	19	55	1	33	0	122	1.16643500997452	1	0	0
171	0	18	147	1	32	0	120	0.662676548003219	0	0	0
172	1	81	46	0	35	0	120	2.41681580001023	1	0	0
173	0	48	10	0	34	0	122	0.550841575022787	1	0	0
174	1	97	105	0	33	0	120	0.655001362028997	1	0	0
175	1	142	94	0	32	0	120	0.99282496800879	1	0	0
176	1	46	52	0	31	0	122	3.85516864102101	0	0	0
177	0	103	38	1	34	0	122	1.17906940903049	1	0	0
178	0	94	30	0	33	0	122	4.14538253698265	1	0	0
179	0	33	88	1	32	0	120	5.68891439103754	0	0	0
180	0	54	63	0	35	0	122	0.691618761979043	1	0	0
181	0	58	42	1	34	0	122	1.78947640303522	1	0	0
182	1	103	15	0	33	0	120	1.19482054800028	1	0	0
183	0	29	117	1	32	0	122	0.881975491007324	1	0	0
184	1	124	42	0	31	0	120	3.1561758609605	1	0	0
185	0	92	74	0	30	0	122	0.980067455966491	1	0	0
186	1	51	20	0	30	0	120	2.32305236702086	1	0	0
187	1	10	135	0	29	0	120	2.77795200998662	1	0	0
188	1	6	16	0	28	0	120	2.86495947500225	1	0	0
189	0	112	82	1	27	0	122	0.917736472038087	1	0	0
190	0	50	31	0	26	0	122	2.45312623598147	1	0	0
191	1	103	107	0	26	0	120	1.02407339395722	1	0	0
192	0	89	12	0	25	0	120	8.15000663598767	0	0	0
193	1	64	137	1	27	0	122	0.851895802945364	0	0	0
194	1	79	44	0	29	0	120	1.75215214100899	1	0	0
195	1	42	4	1	29	0	122	3.08678919303929	0	0	0
196	0	38	64	1	31	0	120	2.57763094495749	0	0	0
197	0	141	2	0	33	0	122	3.0412847760017	1	0	0
198	1	35	135	1	32	0	122	4.47673351102276	0	0	0
199	1	26	65	0	35	0	120	0.750262702000327	1	0	0
200	1	125	144	1	34	0	120	3.88685439503752	1	0	0
201	0	102	52	0	34	0	122	2.95734157197876	1	0	0
202	1	10	94	0	31	0	120	0.976418310019653	1	0	0
203	1	138	35	1	29	0	120	1.34652663196903	1	0	0
204	1	21	56	1	26	0	120	1.52211695699953	1	0	0
205	0	8	115	1	24	0	122	1.36297965998529	1	0	0
206	0	85	108	1	21	0	122	2.38629374699667	1	0	0
207	0	29	140	0	19	0	120	2.57623905496439	0	0	0
208	1	106	113	0	26	0	120	1.6149316909723	1	0	0
209	1	2	147	0	24	0	122	1.06926968699554	0	0	0
210	0	63	43	1	31	0	120	4.3518054279848	0	0	0
211	1	14	15	1	37	0	122	1.04708816501079	0	0	0
212	0	103	105	1	44	0	120	2.89910600404255	0	0	0
213	1	23	19	1	50	0	122	0.821018710965291	0	0	0
214	1	47	95	1	55	0	120	0.864940049999859	1	0	0
215	1	32	124	1	54	0	120	2.6532134229783	1	0	0
216	1	103	41	0	52	0	120	1.96011867601192	1	0	0
217	1	95	2	0	50	0	120	1.70368831499945	1	0	0
218	0	108	110	1	48	0	122	0.759778832027223	1	0	0
219	0	30	74	0	47	0	122	0.951293113001157	1	0	0
220	0	35	36	0	45	0	120	4.29544336296385	0	0	0
221	0	19	44	1	50	0	122	0.665939214988612	1	0	0
222	1	45	58	1	49	0	120	0.908490255998913	1	0	0
223	1	25	77	1	47	0	120	4.65341150196036	1	0	0
224	0	43	83	0	45	0	122	1.19332032598322	1	0	0
225	1	105	100	1	44	0	120	3.10337396303657	1	0	0
226	0	111	99	0	42	0	122	4.60002369596623	1	0	0
227	0	24	35	1	41	0	120	3.81414776900783	0	0	0
228	1	33	150	1	45	0	120	1.08420020196354	1	0	0
229	1	113	25	0	44	0	120	1.45405336999102	1	0	0
230	0	18	67	0	42	0	120	1.2664298369782	0	0	0
231	0	147	132	0	47	0	122	4.02960009104572	1	0	0
232	1	15	48	0	45	0	120	1.8187964480021	1	0	0
233	1	52	142	1	44	0	120	0.934451842971612	1	0	0
234	1	29	93	0	42	0	120	2.22276472201338	1	0	0
235	0	131	95	1	41	0	120	2.73843445500825	0	0	0
236	0	50	22	0	45	0	122	0.715482540021185	1	0	0
237	0	71	149	0	44	0	122	0.884346633043606	1	0	0
238	0	88	86	0	42	0	122	2.27053961099591	1	0	0
239	1	126	38	0	41	0	120	2.98473960999399	1	0	0
240	0	4	123	0	40	0	122	0.934868178039324	1	0	0
241	0	108	81	0	38	0	122	2.68659821397159	1	0	0
242	1	81	85	0	37	0	120	1.51249196904246	1	0	0
243	0	18	82	1	36	0	122	0.673945750051644	1	0	0
244	0	34	39	0	35	0	122	0.733063356019557	1	0	0
245	1	64	126	1	34	0	122	3.46175160002895	0	0	0
246	1	76	73	0	37	0	120	1.25763171596918	1	0	0
247	0	47	118	0	36	0	122	1.25360145402374	1	0	0
248	0	19	148	1	35	0	122	8.59248373203445	1	0	0
249	0	135	73	1	34	0	120	1.49340560199926	0	0	0
250	1	122	137	0	37	0	120	3.30322328698821	1	0	0
251	1	67	54	1	36	0	120	2.50539817102253	1	0	0
252	0	48	91	0	35	0	122	0.633537126006559	1	0	0
253	1	107	119	0	34	0	120	0.847022596979514	1	0	0
254	1	90	148	1	33	0	122	1.72293044795515	0	0	0
255	1	99	114	1	36	0	120	6.10060185100883	1	0	0
256	0	47	29	1	35	0	122	1.12404433597112	1	0	0
257	0	61	63	1	34	0	120	2.97331924200989	0	0	0
258	0	78	57	1	37	0	122	1.05293864104897	1	0	0
259	0	42	63	1	36	0	122	1.6792801580159	1	0	0
260	0	85	22	1	35	0	122	0.714395075046923	1	0	0
261	0	120	137	1	34	0	120	4.55598628398729	0	0	0
262	1	18	99	1	37	0	120	2.04361721297028	1	0	0
263	0	5	28	0	36	0	122	0.959339746972546	1	0	0
264	0	11	33	0	35	0	122	0.749570048006717	1	0	0
265	1	100	40	1	34	0	122	2.78963103395654	0	0	0
266	0	17	69	0	37	0	122	1.18741264299024	1	0	0
267	1	99	128	1	36	0	120	1.6103147569811	1	0	0
268	0	92	113	1	35	0	120	2.41487420903286	0	0	0
269	0	75	81	0	38	0	122	0.604808613017667	1	0	0
270	1	111	143	1	37	0	120	7.17748133401619	1	0	0
271	1	29	11	1	36	0	122	0.785277971997857	0	0	0
272	0	24	51	0	39	0	122	0.989753962028772	1	0	0
273	1	92	63	0	38	0	120	3.47730903298361	1	0	0
274	1	85	32	1	37	0	120	1.0386766109732	1	0	0
275	0	96	57	1	36	0	122	0.546126645000186	1	0	0
276	1	37	101	0	35	0	120	5.48371536197374	1	0	0
277	1	19	104	1	34	0	122	2.5566358580254	0	0	0
278	0	82	130	0	37	0	122	1.58733978297096	1	0	0
279	0	54	119	0	36	0	122	1.10644572100136	1	0	0
280	1	23	102	1	35	0	120	6.19483641802799	1	0	0
281	0	149	17	1	34	0	122	1.85675170004833	1	0	0
282	0	19	25	0	33	0	122	0.948272244015243	1	0	0
283	0	92	102	1	32	0	122	0.732920242007822	1	0	0
284	0	84	132	0	32	0	122	0.901345813996159	1	0	0
285	0	78	8	1	31	0	122	2.74187399697257	1	0	0
286	0	64	125	1	30	0	122	3.24693807098083	1	0	0
287	1	31	33	1	29	0	120	0.859182091022376	1	0	0
288	1	64	13	1	28	0	122	2.5095992150018	0	0	0
289	0	3	92	1	31	0	120	1.50335764302872	0	0	0
290	0	96	98	1	33	0	122	0.720481890952215	1	0	0
291	1	52	126	0	32	0	120	0.88922505202936	1	0	0
292	0	74	43	1	31	0	122	1.13074664695887	1	0	0
293	0	97	144	1	31	0	122	0.746976409980562	1	0	0
294	1	70	61	0	30	0	120	1.01900266698794	1	0	0
295	1	99	21	0	29	0	120	1.6482032519998	1	0	0
296	1	60	34	1	28	0	120	1.33137791999616	1	0	0
297	0	114	20	1	28	0	122	0.653875507996418	1	0	0
298	1	17	144	0	27	0	120	1.49679507798282	1	0	0
299	0	78	140	1	26	0	120	1.57875281601446	0	0	0
300	1	102	141	0	28	0	120	0.953401517006569	1	0	0
