Trial	Gender_Face1	Face1_nb	Face2_nb	Right_left_flip	Nb_Bubbles	Overlap_Target	Response	RT	Accuracy	Simi2Target	Trial_Reward
1	0	106	148	1	40	0	122	18.3095812649699	0	0	0
2	1	33	19	1	48	0	120	5.99709168204572	0	0	0
3	0	103	65	0	55	0	122	3.98001622298034	0	0	0
4	1	112	22	1	61	0	122	1.53884383203695	1	0	0
5	0	72	26	0	59	0	120	1.01784448802937	1	0	0
6	0	120	95	1	57	0	120	9.17670401901705	1	0	0
7	1	119	49	1	55	0	120	1.78215346502839	0	0	0
8	1	29	148	1	62	0	120	3.51756497897441	0	0	0
9	0	27	108	0	67	0	120	4.62151674495544	1	0	0
10	1	72	130	1	66	0	120	6.31469814002048	0	0	0
11	1	120	95	1	71	0	122	2.98119127599057	1	0	0
12	0	25	37	1	69	0	120	3.83450513397111	1	0	0
13	0	89	83	0	67	0	120	3.54260178899858	1	0	0
14	0	62	123	0	66	0	122	1.75209278403781	0	0	0
15	0	8	12	0	70	0	120	2.24708973197266	1	0	0
16	0	26	11	0	69	0	120	3.22694653499639	1	0	0
17	0	24	9	0	67	0	120	5.55129466601647	1	0	0
18	0	36	25	1	66	0	120	3.4319530929788	1	0	0
19	0	126	17	1	64	0	120	1.14904104999732	1	0	0
20	1	80	65	1	63	0	122	1.25171701301588	1	0	0
21	0	87	80	0	61	0	120	5.80789269699017	1	0	0
22	0	117	104	1	60	0	120	6.03834932902828	1	0	0
23	1	107	16	0	58	0	122	0.745735403033905	1	0	0
24	1	43	65	1	57	0	122	0.954433868988417	1	0	0
25	0	130	75	1	55	0	120	1.03253407799639	1	0	0
26	0	39	145	1	54	0	120	2.42919325799448	1	0	0
27	0	112	121	1	52	0	120	0.962704245001078	1	0	0
28	1	119	35	1	51	0	120	0.960829634976108	0	0	0
29	1	140	132	1	55	0	122	1.35371929098619	1	0	0
30	0	128	143	0	54	0	120	1.22350720397662	1	0	0
31	1	93	150	0	53	0	122	1.26938137999969	1	0	0
32	0	45	67	1	51	0	120	1.08806948998244	1	0	0
33	0	137	35	0	50	0	120	1.02619821002008	1	0	0
34	1	148	104	0	49	0	122	1.27803084003972	1	0	0
35	0	46	54	0	47	0	120	4.60076662799111	1	0	0
36	0	6	101	1	46	0	120	1.79897115303902	1	0	0
37	0	71	80	0	45	0	120	1.65266844502185	1	0	0
38	0	115	33	0	44	0	120	2.31913476501359	1	0	0
39	1	42	132	1	42	0	122	0.976981202024035	1	0	0
40	1	91	90	0	41	0	122	0.81568989000516	1	0	0
41	0	88	16	0	40	0	122	0.733296072983649	0	0	0
42	1	101	88	1	44	0	120	2.0611661899602	0	0	0
43	0	123	122	1	47	0	122	3.44796131702606	0	0	0
44	1	71	33	0	51	0	122	1.05221990100108	1	0	0
45	1	85	5	1	50	0	122	1.19250347604975	1	0	0
46	0	122	125	0	48	0	122	0.757694797997829	0	0	0
47	0	150	92	1	52	0	122	1.30818205897231	0	0	0
48	0	56	13	0	55	0	122	2.07755900098709	0	0	0
49	0	142	110	0	59	0	120	2.10455518495291	1	0	0
50	1	46	5	1	57	0	120	1.63368426897796	0	0	0
51	0	36	23	0	61	0	120	1.31753921601921	1	0	0
52	0	23	35	0	60	0	120	1.23177259403747	1	0	0
53	0	29	54	0	59	0	120	1.20409840298817	1	0	0
54	0	147	112	1	58	0	122	1.1126400459907	0	0	0
55	1	34	122	0	61	0	120	1.11458083405159	0	0	0
56	0	64	72	1	64	0	120	0.892299265018664	1	0	0
57	1	26	21	1	63	0	122	0.91761167999357	1	0	0
58	1	114	81	0	62	0	122	1.11966432404006	1	0	0
59	1	17	103	1	61	0	122	0.784751686034724	1	0	0
60	1	47	113	0	60	0	122	0.837923644983675	1	0	0
61	0	97	141	1	59	0	120	0.906930423981976	1	0	0
62	0	111	92	1	58	0	120	3.10746568301693	1	0	0
63	0	31	61	1	57	0	120	1.00593207200291	1	0	0
64	0	122	92	0	56	0	120	5.3068408970139	1	0	0
65	1	68	21	0	55	0	120	2.74793339503231	0	0	0
66	0	53	39	0	58	0	120	1.01154714898439	1	0	0
67	0	52	23	1	57	0	120	0.720526181976311	1	0	0
68	1	101	40	0	56	0	122	0.841831052035559	1	0	0
69	0	122	55	1	55	0	120	1.03854045900516	1	0	0
70	0	48	95	0	54	0	120	1.8014586410136	1	0	0
71	0	108	51	0	53	0	120	0.991797597031109	1	0	0
72	0	142	101	1	52	0	120	1.334420306026	1	0	0
73	0	76	51	1	52	0	120	2.05422364699189	1	0	0
74	1	67	100	1	51	0	122	0.84201285400195	1	0	0
75	1	130	28	0	50	0	122	0.846753958030604	1	0	0
76	0	16	82	0	49	0	120	0.817333366023377	1	0	0
77	0	4	15	0	48	0	120	1.10299343301449	1	0	0
78	0	26	13	1	47	0	120	1.01628427900141	1	0	0
79	1	23	87	0	46	0	122	1.20556378102629	1	0	0
80	1	109	1	0	46	0	122	1.22630632604705	1	0	0
81	1	91	59	1	45	0	122	0.67107224900974	1	0	0
82	1	24	17	0	44	0	122	0.721514783974271	1	0	0
83	1	100	6	1	43	0	122	0.938107196008787	1	0	0
84	0	46	101	1	43	0	120	1.01155102299526	1	0	0
85	0	3	125	0	42	0	120	1.01654112100368	1	0	0
86	0	24	28	0	41	0	120	0.89311088505201	1	0	0
87	1	71	73	0	40	0	122	1.68811904097674	1	0	0
88	1	28	8	0	40	0	122	1.02602400700562	1	0	0
89	1	26	57	1	39	0	120	1.10161058499943	0	0	0
90	0	16	139	0	41	0	120	1.30305809900165	1	0	0
91	1	68	50	0	40	0	122	1.06498265999835	1	0	0
92	0	20	98	1	40	0	120	2.92355134704849	1	0	0
93	0	56	20	1	39	0	122	2.30831379204756	0	0	0
94	0	110	79	0	41	0	122	3.30175860296004	0	0	0
95	1	117	110	0	43	0	122	0.983245415030979	1	0	0
96	0	81	62	0	42	0	120	5.21518965897849	1	0	0
97	1	89	10	0	42	0	122	1.09075818397105	1	0	0
98	1	71	120	1	41	0	122	0.797048272972461	1	0	0
99	1	85	66	0	40	0	122	0.899922961019911	1	0	0
100	0	22	86	1	40	0	120	0.870273082982749	1	0	0
101	0	15	144	0	40	0	122	4.31018744199537	0	0	0
102	1	72	77	0	48	0	122	4.62180639698636	1	0	0
103	1	48	8	0	45	0	122	1.02675949799595	1	0	0
104	0	84	8	0	43	0	122	2.51863431796664	0	0	0
105	1	62	30	1	50	0	122	1.24077949096682	1	0	0
106	1	118	141	1	48	0	122	1.08366823097458	1	0	0
107	1	41	104	1	46	0	120	1.07123900996521	0	0	0
108	1	45	126	1	53	0	122	1.60155083198333	1	0	0
109	0	27	142	0	51	0	122	0.974823330005165	0	0	0
110	0	119	123	0	57	0	120	2.23732834099792	1	0	0
111	1	54	127	0	55	0	122	0.754029074974824	1	0	0
112	1	111	75	1	53	0	122	0.640558354964014	1	0	0
113	1	118	54	0	51	0	120	0.965532685979269	0	0	0
114	0	134	122	0	57	0	120	0.813198718999047	1	0	0
115	0	126	146	1	55	0	120	0.617636297014542	1	0	0
116	1	72	99	1	53	0	122	2.69476527604274	1	0	0
117	1	41	141	1	51	0	120	2.93746161396848	0	0	0
118	1	39	39	1	57	0	120	0.712456262030173	0	0	0
119	1	134	77	1	62	0	122	0.834049027995206	1	0	0
120	1	66	117	0	60	0	122	0.886364611040335	1	0	0
121	1	64	85	1	59	0	120	1.03253560699522	0	0	0
122	1	85	87	1	63	0	122	0.773753142973874	1	0	0
123	1	114	132	0	62	0	122	3.4203805809957	1	0	0
124	1	7	100	0	60	0	122	1.76936626702081	1	0	0
125	0	125	107	1	59	0	122	9.5040226210258	0	0	0
126	0	70	11	1	63	0	120	0.880394804000389	1	0	0
127	1	113	16	0	62	0	122	0.938562961004209	1	0	0
128	1	59	15	1	60	0	122	1.12315337103792	1	0	0
129	1	109	83	1	59	0	122	0.876197750039864	1	0	0
130	1	108	24	1	57	0	122	0.534524141985457	1	0	0
131	1	2	106	1	56	0	122	0.566548272967339	1	0	0
132	0	15	53	0	55	0	120	4.06161048397189	1	0	0
133	1	113	23	1	53	0	122	1.05032224603929	1	0	0
134	1	85	12	1	52	0	122	0.686433941998985	1	0	0
135	1	16	21	1	51	0	122	0.880639323964715	1	0	0
136	1	135	102	0	49	0	120	7.06688018701971	0	0	0
137	0	54	62	0	53	0	122	0.837795740982983	0	0	0
138	1	32	135	0	57	0	122	0.929868030012585	1	0	0
139	0	24	103	1	56	0	120	1.17083763401024	1	0	0
140	0	77	136	0	55	0	120	1.35204991197679	1	0	0
141	1	140	34	1	53	0	122	0.704460515000392	1	0	0
142	0	4	112	0	52	0	120	0.794090348004829	1	0	0
143	1	82	4	1	51	0	122	0.728441102022771	1	0	0
144	0	99	145	0	50	0	120	1.5117208629963	1	0	0
145	0	64	87	1	49	0	120	1.89788690500427	1	0	0
146	0	104	63	1	47	0	120	8.06677311199019	1	0	0
147	1	88	104	0	46	0	122	7.67925342498347	1	0	0
148	0	68	88	0	45	0	120	1.18530319898855	1	0	0
149	0	58	85	1	44	0	120	0.766599940950982	1	0	0
150	0	143	98	0	43	0	120	2.9257764070062	1	0	0
151	0	27	31	1	42	0	120	2.7668550540111	1	0	0
152	1	78	123	1	41	0	120	1.81357305898564	0	0	0
153	0	139	15	1	44	0	120	1.2031396899838	1	0	0
154	0	63	86	1	43	0	122	0.992694940010551	0	0	0
155	1	66	137	1	46	0	122	1.43154258199502	1	0	0
156	0	146	128	1	45	0	120	0.891408992989454	1	0	0
157	1	52	95	1	44	0	120	2.59808386396617	0	0	0
158	1	94	120	0	47	0	122	0.810711602971423	1	0	0
159	1	113	36	0	46	0	120	0.800826779042836	0	0	0
160	0	105	144	1	49	0	122	4.40701725595864	0	0	0
161	1	79	85	1	52	0	122	0.867107439960819	1	0	0
162	0	68	110	1	51	0	120	1.39888555801008	1	0	0
163	1	41	80	1	50	0	120	2.42204008100089	0	0	0
164	1	86	59	0	53	0	120	1.73055294895312	0	0	0
165	1	42	149	1	56	0	122	6.77896624204004	1	0	0
166	0	8	139	0	55	0	122	2.51352053199662	0	0	0
167	1	137	47	0	58	0	122	0.666728348995093	1	0	0
168	1	125	82	0	57	0	120	1.08977093495196	0	0	0
169	1	67	1	1	60	0	122	0.855505510990042	1	0	0
170	0	30	97	1	59	0	120	1.08286452002358	1	0	0
171	1	102	51	1	58	0	122	0.676039286016021	1	0	0
172	1	70	107	1	57	0	122	2.43195863295114	1	0	0
173	0	121	27	0	57	0	120	0.924058777978644	1	0	0
174	0	123	5	0	56	0	120	1.06980135501362	1	0	0
175	1	120	123	0	55	0	120	3.8080250149942	0	0	0
176	0	35	126	1	58	0	120	0.733298269973602	1	0	0
177	1	100	99	0	57	0	122	1.42954064998776	1	0	0
178	1	103	135	0	56	0	122	1.11446814698866	1	0	0
179	1	148	140	1	55	0	122	0.691286345012486	1	0	0
180	0	72	122	0	54	0	120	1.54929164302303	1	0	0
181	0	11	60	0	53	0	120	1.00491532596061	1	0	0
182	0	148	145	1	52	0	122	4.04222798004048	0	0	0
183	0	123	62	1	55	0	122	0.599715648975689	0	0	0
184	0	18	15	1	57	0	120	1.48470247298246	1	0	0
185	1	18	59	1	57	0	120	1.43975037999917	0	0	0
186	0	28	112	1	59	0	120	0.762376280967146	1	0	0
187	0	19	25	0	58	0	120	0.786168374004774	1	0	0
188	0	49	68	1	57	0	120	0.632091748993844	1	0	0
189	0	64	74	1	57	0	120	0.605245755985379	1	0	0
190	0	121	18	1	56	0	120	0.673959723033477	1	0	0
191	0	25	2	0	55	0	120	0.605130371986888	1	0	0
192	1	124	15	1	54	0	120	1.41688025800977	0	0	0
193	0	9	84	0	57	0	122	3.78404888795922	0	0	0
194	1	65	75	0	59	0	122	0.87746073800372	1	0	0
195	1	77	104	1	58	0	122	0.744702841038816	1	0	0
196	1	86	15	0	57	0	122	1.50374388700584	1	0	0
197	0	114	143	1	57	0	122	2.55165268603014	0	0	0
198	1	48	135	0	59	0	120	0.808430068020243	0	0	0
199	1	92	48	1	61	0	122	0.838285723992158	1	0	0
200	0	103	69	0	60	0	120	0.824929675960448	1	0	0
201	0	63	26	1	60	0	122	1.91698555799667	0	0	0
202	1	71	141	1	70	0	122	0.81366495997645	1	0	0
203	0	132	108	0	67	0	122	0.707574789994396	0	0	0
204	0	144	77	1	76	0	120	1.33279199001845	1	0	0
205	0	44	119	1	74	0	120	0.853287658013869	1	0	0
206	0	10	42	0	71	0	120	0.905248119030148	1	0	0
207	1	116	98	1	68	0	120	1.69070061499951	0	0	0
208	0	80	135	1	76	0	122	0.675165880005807	0	0	0
209	0	121	37	0	84	0	120	0.7585751870065	1	0	0
210	0	60	26	1	82	0	120	0.750365533982404	1	0	0
211	0	34	14	0	79	0	120	0.630472478980664	1	0	0
212	0	20	147	0	77	0	120	1.10635664698202	1	0	0
213	0	145	117	0	74	0	120	0.675905523996335	1	0	0
214	1	105	8	0	72	0	122	0.81909652100876	1	0	0
215	1	88	138	1	70	0	122	3.08331260702107	1	0	0
216	0	71	18	0	67	0	122	1.34908158698818	0	0	0
217	1	85	82	1	74	0	122	0.573217220022343	1	0	0
218	0	72	84	1	72	0	120	0.772460417007096	1	0	0
219	0	121	60	1	70	0	120	1.40643526497297	1	0	0
220	1	34	110	0	68	0	120	0.76633482897887	0	0	0
221	0	11	94	1	74	0	120	0.838615864980966	1	0	0
222	1	138	76	0	72	0	122	0.914336483983789	1	0	0
223	0	81	37	0	70	0	120	1.07625543599715	1	0	0
224	0	1	130	1	68	0	120	2.23069189698435	1	0	0
225	1	18	86	0	66	0	122	1.34566706896294	1	0	0
226	1	95	31	1	64	0	122	0.546659144980367	1	0	0
227	1	39	112	0	62	0	120	1.13842841499718	0	0	0
228	1	130	131	1	68	0	122	0.825904726982117	1	0	0
229	0	127	125	0	66	0	120	0.743308172968682	1	0	0
230	1	98	123	1	64	0	122	1.12642639799742	1	0	0
231	0	37	139	1	62	0	120	0.704492316988762	1	0	0
232	0	104	124	1	60	0	120	0.56998907198431	1	0	0
233	0	139	84	0	59	0	120	1.11931784200715	1	0	0
234	0	67	15	1	57	0	120	0.6558490319876	1	0	0
235	0	14	95	0	55	0	122	7.70057818002533	0	0	0
236	1	74	55	1	60	0	122	0.909695887006819	1	0	0
237	1	132	48	0	58	0	122	0.88601567002479	1	0	0
238	1	40	19	1	57	0	122	1.78508216899354	1	0	0
239	0	20	11	1	55	0	122	1.07087190396851	0	0	0
240	1	68	28	0	60	0	122	10.7929834669922	1	0	0
241	1	90	89	1	58	0	122	0.719514442957006	1	0	0
242	0	136	20	1	57	0	120	0.856413322966546	1	0	0
243	1	83	62	1	55	0	122	2.41957340599038	1	0	0
244	1	104	41	1	53	0	122	0.631253260013182	1	0	0
245	1	103	98	1	52	0	122	0.644682122976519	1	0	0
246	0	99	124	1	50	0	120	0.831618388998322	1	0	0
247	0	111	139	0	49	0	120	1.42027647700161	1	0	0
248	0	37	82	0	47	0	120	0.505955227999948	1	0	0
249	1	89	111	0	46	0	120	0.690964203968178	0	0	0
250	0	113	114	0	50	0	120	0.701895196980331	1	0	0
251	0	24	82	1	49	0	120	0.694047346012667	1	0	0
252	0	71	76	0	47	0	120	0.671197328018025	1	0	0
253	1	51	134	0	46	0	120	2.18760730302893	0	0	0
254	1	129	97	1	50	0	122	0.631971046037506	1	0	0
255	1	133	93	0	49	0	120	1.07654610398458	0	0	0
256	0	39	63	1	53	0	120	0.78441607998684	1	0	0
257	1	103	135	0	51	0	122	0.74296735500684	1	0	0
258	1	72	17	0	50	0	120	1.69496219599387	0	0	0
259	1	19	90	1	54	0	122	0.824639034981374	1	0	0
260	0	30	144	1	53	0	122	0.589912071998697	0	0	0
261	0	136	113	0	57	0	120	0.667301396024413	1	0	0
262	0	118	61	1	55	0	120	2.54319932695944	1	0	0
263	1	123	30	0	54	0	122	1.31845129199792	1	0	0
264	1	117	34	1	53	0	122	1.0142000420019	1	0	0
265	1	107	131	0	51	0	122	0.531861124036368	1	0	0
266	0	74	57	1	50	0	122	0.524847024993505	0	0	0
267	1	61	49	1	54	0	122	1.98163171199849	1	0	0
268	1	62	144	1	53	0	122	0.73220503597986	1	0	0
269	1	108	103	0	52	0	122	0.597456044983119	1	0	0
270	0	131	149	0	50	0	120	1.17972890601959	1	0	0
271	0	58	102	1	49	0	120	0.778228003997356	1	0	0
272	1	100	28	1	48	0	122	0.800606587028597	1	0	0
273	0	1	33	0	47	0	120	0.957634297956247	1	0	0
274	1	87	145	1	46	0	120	0.829394672997296	0	0	0
275	0	114	77	0	49	0	120	1.43348391901236	1	0	0
276	0	118	71	1	48	0	120	0.782791770994663	1	0	0
277	0	57	148	1	47	0	120	0.725299415003974	1	0	0
278	0	28	108	1	46	0	120	1.24530855502235	1	0	0
279	1	15	91	0	45	0	120	1.52136759599671	0	0	0
280	1	17	128	1	48	0	120	6.59476759802783	0	0	0
281	1	44	3	1	51	0	120	4.76559229299892	0	0	0
282	0	106	11	0	55	0	120	0.663146618986502	1	0	0
283	0	124	18	0	53	0	120	1.30760979803745	1	0	0
284	1	98	74	1	52	0	122	0.797469714016188	1	0	0
285	0	149	4	0	51	0	120	0.754877295985352	1	0	0
286	1	70	108	0	50	0	122	0.793251271999907	1	0	0
287	1	60	108	1	49	0	122	0.575304048019461	1	0	0
288	1	13	109	0	48	0	122	0.517392456997186	1	0	0
289	0	144	25	1	47	0	120	13.2803855480161	1	0	0
290	1	74	142	1	46	0	120	8.69765563699184	0	0	0
291	1	117	67	0	49	0	120	0.7712715829839	0	0	0
292	1	14	31	0	52	0	120	1.90735464199679	0	0	0
293	0	93	134	1	55	0	120	1.21960312296869	1	0	0
294	1	48	129	1	54	0	122	19.3603135450394	1	0	0
295	0	120	88	0	53	0	122	1.07110090903006	0	0	0
296	0	150	91	0	56	0	120	0.682155160990078	1	0	0
297	0	76	46	0	55	0	120	0.98856505099684	1	0	0
298	0	16	107	1	54	0	120	0.882614306989126	1	0	0
299	0	77	62	1	53	0	120	0.813009821984451	1	0	0
300	0	12	52	1	52	0	120	0.571034586988389	1	0	0
