Trial	Gender_Face1	Face1_nb	Face2_nb	Right_left_flip	Nb_Bubbles	Overlap_Target	Response	RT	Accuracy	Simi2Target	Trial_Reward
1	0	128	136	0	112	0	122	1.57203348993789	1	0	0
2	0	54	55	1	109	0	122	0.232722343062051	1	0	0
3	0	70	105	1	107	0	120	0.839084604056552	0	0	0
4	0	5	69	1	115	0	122	0.583168321056291	1	0	0
5	1	96	142	0	112	0	120	0.629551524063572	1	0	0
6	1	6	24	0	110	0	120	0.681041204021312	1	0	0
7	0	72	10	0	108	0	122	1.65892300696578	1	0	0
8	0	90	109	1	105	0	122	0.460894365911372	1	0	0
9	0	19	68	1	103	0	122	0.575530384085141	1	0	0
10	1	46	72	0	101	0	122	0.765271577984095	0	0	0
11	1	73	73	0	108	0	120	0.899883394013159	1	0	0
12	0	107	12	1	106	0	122	0.868586326017976	1	0	0
13	1	105	3	0	103	0	120	0.926843498949893	1	0	0
14	1	17	97	1	101	0	120	0.798779252101667	1	0	0
15	0	11	103	1	99	0	122	0.41145479795523	1	0	0
16	1	83	62	1	97	0	120	0.687489047995768	1	0	0
17	0	45	102	0	95	0	122	0.721322692930698	1	0	0
18	0	47	83	0	93	0	122	1.48113247100264	1	0	0
19	1	106	130	0	91	0	120	0.875302333035506	1	0	0
20	0	22	98	0	89	0	122	1.71693185495678	1	0	0
21	1	108	43	1	87	0	120	0.80577426601667	1	0	0
22	1	15	86	1	86	0	122	1.08997534704395	0	0	0
23	0	40	61	0	91	0	122	0.915825563017279	1	0	0
24	0	35	98	0	89	0	122	1.99499883502722	1	0	0
25	1	76	14	1	87	0	122	1.28008832607884	0	0	0
26	1	15	42	0	93	0	122	2.53040441300254	0	0	0
27	1	20	124	1	98	0	122	1.56995310692582	0	0	0
28	1	36	79	1	104	0	122	4.27175318496302	0	0	0
29	0	2	27	1	109	0	122	0.730114987003617	1	0	0
30	1	3	112	0	107	0	122	1.18531094002537	0	0	0
31	1	101	65	1	112	0	122	1.06349392002448	0	0	0
32	0	87	6	1	117	0	122	2.31355313106906	1	0	0
33	0	67	17	0	115	0	122	1.06521196197718	1	0	0
34	1	145	97	1	114	0	120	1.46013803302776	1	0	0
35	0	85	106	1	112	0	122	2.83803152409382	1	0	0
36	1	6	62	0	111	0	120	0.657522445078939	1	0	0
37	1	15	142	1	109	0	122	0.716774626984261	0	0	0
38	1	116	16	1	114	0	120	0.604597709025256	1	0	0
39	0	71	85	0	112	0	122	0.608062996063381	1	0	0
40	1	34	124	1	111	0	120	2.17293847701512	1	0	0
41	0	131	32	1	110	0	122	0.578567554010078	1	0	0
42	1	127	123	1	108	0	120	0.864491164917126	1	0	0
43	1	130	93	0	107	0	120	0.650422650040127	1	0	0
44	0	13	66	1	106	0	122	0.798180819023401	1	0	0
45	0	4	72	0	104	0	122	0.794711339985952	1	0	0
46	1	18	8	0	103	0	120	0.839539651060477	1	0	0
47	1	41	3	1	102	0	122	0.611308209015988	0	0	0
48	1	87	141	0	105	0	120	1.55147126002703	1	0	0
49	1	8	136	1	104	0	120	0.727215572958812	1	0	0
50	0	42	148	1	103	0	122	1.8703757149633	1	0	0
51	0	22	8	0	102	0	122	0.80007793509867	1	0	0
52	0	145	125	1	101	0	122	1.19669587595854	1	0	0
53	1	85	79	1	99	0	122	0.425858561065979	0	0	0
54	1	115	1	1	103	0	120	1.31757522502448	1	0	0
55	1	124	22	0	102	0	122	0.830574264051393	0	0	0
56	0	19	58	1	105	0	122	0.713656047009863	1	0	0
57	1	1	146	1	104	0	120	0.522746828035451	1	0	0
58	0	50	92	1	103	0	122	0.49814677098766	1	0	0
59	0	113	126	1	102	0	122	0.707209115964361	1	0	0
60	1	15	90	1	101	0	122	0.907966323080473	0	0	0
61	1	55	9	1	104	0	120	0.980552923982032	1	0	0
62	0	121	124	1	103	0	122	0.970616918057203	1	0	0
63	1	31	124	1	102	0	122	2.24069686001167	0	0	0
64	1	88	117	0	105	0	122	1.23574840591755	0	0	0
65	0	14	114	1	108	0	122	1.36760172899812	1	0	0
66	0	67	21	0	107	0	122	0.734129733988084	1	0	0
67	1	109	72	1	106	0	122	0.877805572003126	0	0	0
68	1	23	1	0	109	0	122	0.75191532401368	0	0	0
69	1	13	102	0	113	0	122	1.14316159801092	0	0	0
70	1	113	150	1	116	0	120	5.8530214818893	1	0	0
71	0	122	109	0	115	0	122	11.9528183939401	1	0	0
72	0	15	112	1	114	0	122	0.446870715008117	1	0	0
73	0	42	1	0	113	0	122	0.55514985404443	1	0	0
74	1	41	121	0	112	0	122	0.577794166980311	0	0	0
75	1	149	96	0	115	0	122	2.93548467301298	0	0	0
76	0	39	3	1	118	0	122	2.12709562899545	1	0	0
77	1	123	83	0	117	0	120	3.86240187799558	1	0	0
78	1	27	12	0	116	0	120	9.00013837404549	1	0	0
79	1	140	123	1	115	0	120	0.980806853971444	1	0	0
80	1	44	25	1	114	0	122	1.2906380048953	0	0	0
81	0	63	90	1	116	0	122	1.74730731698219	1	0	0
82	1	99	91	0	115	0	120	0.650974232004955	1	0	0
83	0	120	57	1	114	0	120	1.43831519002561	0	0	0
84	1	19	115	0	117	0	120	7.27351911203004	1	0	0
85	0	99	52	1	116	0	122	8.07590646599419	1	0	0
86	1	135	76	0	115	0	120	0.493755709961988	1	0	0
87	0	122	101	0	114	0	122	0.438756745075807	1	0	0
88	0	26	141	1	114	0	122	0.442290509003215	1	0	0
89	0	19	108	0	113	0	122	0.436913388897665	1	0	0
90	0	6	42	0	112	0	122	0.520817760960199	1	0	0
91	1	45	117	0	111	0	122	0.472692620009184	0	0	0
92	1	74	109	1	114	0	122	0.490566023974679	0	0	0
93	1	84	134	0	116	0	120	0.699705198057927	1	0	0
94	1	35	36	1	115	0	122	0.636648752028123	0	0	0
95	0	62	46	0	118	0	122	1.47194870503154	1	0	0
96	1	128	30	1	117	0	120	1.32924338290468	1	0	0
97	1	73	141	0	116	0	120	0.640993192908354	1	0	0
98	0	137	75	1	115	0	122	5.02868589898571	1	0	0
99	0	45	69	1	114	0	122	0.575659770984203	1	0	0
100	1	137	109	0	114	0	122	1.23015293793287	0	0	0
101	1	150	135	1	116	0	120	1.3947481859941	1	0	0
102	1	80	118	0	113	0	120	0.685121778980829	1	0	0
103	0	64	118	0	111	0	120	0.481867909897119	0	0	0
104	0	132	2	0	119	0	122	0.808998481952585	1	0	0
105	1	126	56	1	116	0	120	1.02119885501452	1	0	0
106	0	10	112	0	114	0	122	0.545472980011255	1	0	0
107	0	50	99	0	112	0	122	1.12942689098418	1	0	0
108	0	41	140	0	109	0	122	1.11225779901724	1	0	0
109	0	77	149	1	107	0	122	0.593553771963343	1	0	0
110	1	39	30	0	105	0	122	1.13474629400298	0	0	0
111	0	92	21	0	112	0	122	1.42228506901301	1	0	0
112	1	135	35	1	110	0	120	1.554719673004	1	0	0
113	1	97	150	0	107	0	120	0.87349163601175	1	0	0
114	0	82	110	1	105	0	122	0.539193848031573	1	0	0
115	1	62	139	1	103	0	120	0.737520136055537	1	0	0
116	0	67	142	1	101	0	122	0.529951757984236	1	0	0
117	1	28	84	1	99	0	120	0.57652365998365	1	0	0
118	0	116	89	0	97	0	122	0.999222398968413	1	0	0
119	1	20	51	0	95	0	120	0.748172327992506	1	0	0
120	0	111	35	1	93	0	122	0.962791653932072	1	0	0
121	0	13	90	1	91	0	122	0.641756163095124	1	0	0
122	0	35	80	1	90	0	122	0.533367504016496	1	0	0
123	1	105	119	1	88	0	120	0.88456066895742	1	0	0
124	1	38	71	0	86	0	120	0.550478303921409	1	0	0
125	0	120	2	0	84	0	120	0.589042155072093	0	0	0
126	0	140	52	1	89	0	122	0.986965180956759	1	0	0
127	0	113	48	1	88	0	122	1.51186901400797	1	0	0
128	0	127	26	0	86	0	122	0.840875052032061	1	0	0
129	0	67	28	1	84	0	122	0.684060744009912	1	0	0
130	1	75	84	1	82	0	120	0.678223073948175	1	0	0
131	1	73	50	0	81	0	120	0.67161173990462	1	0	0
132	1	15	88	1	79	0	122	0.680861141998321	0	0	0
133	1	76	136	1	84	0	120	0.907017744029872	1	0	0
134	0	145	144	0	83	0	120	0.955806173034944	0	0	0
135	0	32	4	1	87	0	122	0.60196056694258	1	0	0
136	0	140	119	0	86	0	122	0.550657956977375	1	0	0
137	0	145	137	1	84	0	122	0.453381318948232	1	0	0
138	0	90	33	0	83	0	122	0.696714848978445	1	0	0
139	0	63	35	1	81	0	122	0.681940646958537	1	0	0
140	1	4	58	1	80	0	122	0.883658934035338	0	0	0
141	0	118	74	1	84	0	122	0.597576475003734	1	0	0
142	1	87	114	0	83	0	122	0.442109885974787	0	0	0
143	0	134	132	0	87	0	122	0.365809715935029	1	0	0
144	1	121	7	1	86	0	122	0.340842915000394	0	0	0
145	1	22	57	0	90	0	122	0.3073678270448	0	0	0
146	0	107	128	0	94	0	122	1.16450880398043	1	0	0
147	0	37	133	1	92	0	122	0.778455185005441	1	0	0
148	1	43	113	1	91	0	122	1.55236361501738	0	0	0
149	0	51	7	0	95	0	122	0.599336876068264	1	0	0
150	0	13	30	1	94	0	122	0.900989774032496	1	0	0
151	1	19	104	1	93	0	120	0.709977275924757	1	0	0
152	1	33	41	1	91	0	120	0.878448690986261	1	0	0
153	1	30	139	0	90	0	122	1.05665853491519	0	0	0
154	1	102	53	0	94	0	120	2.29901621805038	1	0	0
155	1	45	88	0	93	0	120	0.73155153694097	1	0	0
156	1	150	91	0	91	0	120	0.820362291997299	1	0	0
157	1	84	133	0	90	0	120	1.24737570399884	1	0	0
158	1	69	27	1	89	0	120	0.842315374989994	1	0	0
159	1	9	3	0	88	0	120	1.27794103091583	1	0	0
160	1	38	89	0	87	0	120	1.47131341008935	1	0	0
161	1	52	16	1	86	0	120	1.40899661800358	1	0	0
162	1	132	21	0	84	0	120	0.822093690047041	1	0	0
163	1	120	18	0	83	0	122	0.90645548410248	0	0	0
164	0	116	146	1	87	0	122	0.81802358594723	1	0	0
165	1	48	145	1	85	0	120	1.29356730298605	1	0	0
166	0	48	23	1	84	0	122	2.51946360501461	1	0	0
167	0	32	18	1	83	0	122	0.647393867955543	1	0	0
168	1	117	58	0	82	0	122	1.37116384902038	0	0	0
169	1	13	93	0	85	0	120	0.928890338982455	1	0	0
170	0	75	79	0	84	0	122	0.848554300959222	1	0	0
171	0	16	108	0	83	0	122	0.739302329951897	1	0	0
172	0	37	58	1	82	0	122	0.634261606959626	1	0	0
173	1	149	49	1	81	0	122	0.526100552990101	0	0	0
174	1	120	42	0	84	0	122	0.366796430083923	0	0	0
175	1	20	43	1	87	0	122	0.461478624958545	0	0	0
176	1	55	121	1	90	0	120	0.847258672001772	1	0	0
177	0	61	112	1	89	0	122	0.658720915089361	1	0	0
178	1	49	49	1	88	0	120	0.836964135058224	1	0	0
179	0	3	106	0	87	0	122	0.568026596913114	1	0	0
180	1	99	42	0	86	0	120	0.598117051995359	1	0	0
181	1	37	103	1	85	0	120	0.883190862950869	1	0	0
182	1	16	102	0	85	0	122	0.860600112006068	0	0	0
183	1	60	13	1	87	0	120	0.775572779006325	1	0	0
184	0	50	77	1	86	0	122	3.00560966692865	1	0	0
185	1	22	21	1	86	0	120	0.86618318001274	1	0	0
186	1	115	75	0	85	0	120	1.10905021394137	1	0	0
187	0	106	62	0	84	0	122	1.47718205710407	1	0	0
188	0	7	106	0	83	0	122	0.99889623792842	1	0	0
189	0	49	74	1	82	0	122	4.22005289501976	1	0	0
190	1	90	44	1	81	0	120	2.07191712898202	1	0	0
191	0	66	91	0	80	0	122	0.922207177965902	1	0	0
192	0	57	85	1	80	0	122	0.905989225022495	1	0	0
193	0	103	74	0	79	0	122	0.746316776028834	1	0	0
194	1	121	124	0	78	0	120	3.20979221293237	1	0	0
195	0	96	132	0	77	0	122	2.18073669995647	1	0	0
196	0	37	99	1	76	0	122	2.55505399696995	1	0	0
197	0	144	85	0	76	0	122	1.58562690101098	1	0	0
198	1	141	59	1	75	0	120	1.43877666199114	1	0	0
199	0	38	80	0	74	0	122	2.07312566391192	1	0	0
200	0	71	19	1	73	0	122	0.604706270969473	1	0	0
201	0	22	128	0	73	0	122	0.647346804034896	1	0	0
202	0	44	95	0	70	0	122	0.567907284013927	1	0	0
203	1	66	3	1	66	0	122	0.705731302965432	0	0	0
204	0	84	122	0	76	0	122	0.535719425999559	1	0	0
205	1	59	93	0	73	0	122	0.527338045998476	0	0	0
206	0	37	123	1	83	0	122	0.486874860012904	1	0	0
207	0	147	141	0	80	0	122	0.543500566971488	1	0	0
208	1	24	30	1	77	0	120	1.87885545298923	1	0	0
209	0	34	99	0	74	0	122	0.472527222009376	1	0	0
210	0	135	137	0	71	0	122	1.02610065590125	1	0	0
211	0	30	88	0	69	0	122	0.814426361001097	1	0	0
212	1	115	104	1	66	0	120	1.94685786403716	1	0	0
213	1	80	149	0	63	0	120	1.2973083659308	1	0	0
214	0	112	107	0	61	0	122	1.25895600696094	1	0	0
215	1	41	15	0	58	0	122	1.02948649204336	0	0	0
216	0	122	106	1	66	0	122	0.753402427071705	1	0	0
217	0	16	86	1	63	0	122	1.03198850702029	1	0	0
218	1	50	84	1	61	0	122	0.571673866943456	0	0	0
219	1	56	148	0	68	0	122	0.562257052981295	0	0	0
220	1	76	103	0	75	0	120	0.681237990036607	1	0	0
221	0	14	11	1	73	0	122	1.36276442196686	1	0	0
222	0	142	36	0	71	0	122	0.593386085005477	1	0	0
223	0	148	82	0	68	0	122	0.918681610026397	1	0	0
224	0	3	48	0	66	0	122	0.71889601892326	1	0	0
225	1	16	39	0	64	0	122	0.486922012059949	0	0	0
226	1	16	116	1	71	0	122	0.664536471944302	0	0	0
227	0	129	148	1	77	0	122	0.466657525044866	1	0	0
228	0	99	79	1	75	0	122	0.70962337590754	1	0	0
229	1	147	19	0	73	0	122	0.845519219059497	0	0	0
230	1	18	146	0	79	0	120	0.760575467022136	1	0	0
231	1	76	104	1	77	0	120	0.654740202007815	1	0	0
232	0	30	111	1	75	0	122	0.42530564207118	1	0	0
233	0	112	112	1	73	0	122	0.589487690012902	1	0	0
234	1	80	135	0	71	0	120	0.899251426919363	1	0	0
235	1	137	111	1	70	0	122	8.21968817990273	0	0	0
236	0	143	74	0	75	0	122	0.552356165018864	1	0	0
237	1	20	116	1	74	0	120	0.687468784977682	1	0	0
238	1	102	125	1	72	0	120	1.4962822200032	1	0	0
239	1	150	24	1	70	0	120	1.08200507401489	1	0	0
240	1	98	60	0	68	0	120	0.507476437953301	1	0	0
241	0	23	41	0	66	0	122	0.604077617987059	1	0	0
242	0	98	122	0	65	0	122	0.392219419009052	1	0	0
243	0	117	35	1	63	0	122	0.550603627925739	1	0	0
244	0	19	104	0	61	0	122	0.6039972739527	1	0	0
245	1	141	85	1	60	0	120	0.785388921038248	1	0	0
246	1	51	5	0	58	0	120	0.862680409103632	1	0	0
247	1	12	4	0	57	0	122	2.23363261704799	0	0	0
248	1	117	38	1	61	0	120	1.17343117902055	1	0	0
249	1	117	60	1	60	0	120	0.674986183992587	1	0	0
250	1	77	144	0	58	0	120	1.6691978740273	1	0	0
251	0	144	111	1	57	0	122	0.591650270973332	1	0	0
252	1	93	128	1	55	0	120	9.76497612299863	1	0	0
253	1	9	126	1	54	0	120	0.818339876015671	1	0	0
254	0	97	5	0	52	0	122	0.847739136079326	1	0	0
255	0	74	42	0	51	0	120	0.634040301898494	0	0	0
256	0	20	146	1	55	0	120	0.590534809976816	0	0	0
257	1	73	92	1	60	0	120	0.628116787993349	1	0	0
258	0	99	10	0	58	0	122	0.983800287009217	1	0	0
259	0	96	23	0	57	0	122	0.821415880927816	1	0	0
260	0	123	83	1	55	0	120	1.07303911191411	0	0	0
261	1	113	130	0	60	0	120	0.595063315005973	1	0	0
262	0	36	22	1	58	0	122	0.632294793031178	1	0	0
263	1	103	53	1	57	0	120	0.93184397299774	1	0	0
264	0	51	62	1	55	0	122	1.00383914797567	1	0	0
265	1	30	97	1	54	0	122	0.792296114028431	0	0	0
266	0	73	112	0	58	0	122	1.60561759595294	1	0	0
267	1	110	5	0	57	0	122	5.26693904597778	0	0	0
268	1	18	62	0	61	0	120	0.801207703072578	1	0	0
269	0	102	32	0	60	0	122	2.32198412308935	1	0	0
270	1	132	90	0	58	0	120	1.08128836296964	1	0	0
271	0	135	34	0	57	0	122	0.923979687038809	1	0	0
272	1	48	16	1	56	0	120	0.691437374916859	1	0	0
273	1	144	137	0	55	0	122	0.74926912097726	0	0	0
274	1	15	35	1	58	0	122	1.48378343007062	0	0	0
275	0	5	25	0	62	0	122	0.741414856980555	1	0	0
276	1	142	3	0	61	0	120	0.757068136008456	1	0	0
277	1	21	106	0	60	0	120	0.507358503062278	1	0	0
278	0	96	102	1	58	0	122	0.612507026991807	1	0	0
279	1	21	3	0	57	0	120	0.943804928101599	1	0	0
280	0	6	107	1	56	0	120	1.0082568929065	0	0	0
281	0	100	23	0	60	0	120	0.620797420968302	0	0	0
282	1	45	97	1	63	0	120	1.03979754808825	1	0	0
283	0	91	64	0	62	0	122	0.931355973007157	1	0	0
284	0	133	27	0	61	0	122	0.739186935941689	1	0	0
285	1	92	108	0	60	0	120	0.746017638943158	1	0	0
286	0	25	14	1	58	0	122	0.769467366975732	1	0	0
287	1	26	44	1	57	0	120	0.654394776094705	1	0	0
288	1	84	70	1	56	0	120	0.881279648980126	1	0	0
289	1	81	118	1	55	0	120	0.683491289964877	1	0	0
290	0	136	78	1	54	0	122	0.925764933926985	1	0	0
291	1	100	87	0	53	0	122	0.733407767955214	0	0	0
292	1	120	17	1	56	0	120	0.748818814055994	1	0	0
293	1	129	72	1	55	0	120	0.652412196039222	1	0	0
294	0	101	110	1	54	0	122	0.519472382031381	1	0	0
295	0	146	4	0	53	0	120	0.798833422944881	0	0	0
296	0	5	106	1	56	0	122	0.988778968923725	1	0	0
297	1	37	89	1	55	0	120	1.09779828600585	1	0	0
298	1	55	123	1	54	0	120	0.89130588597618	1	0	0
299	1	122	58	1	53	0	120	0.59595922799781	1	0	0
300	1	51	135	1	52	0	120	0.401652903994545	1	0	0
